#
# Results on Mon, 30 Jun 2025 11:34:08 GMT
# USER AGENT: Mozilla/5.0 (Macintosh; Intel Mac OS X 10_15_7) AppleWebKit/537.36 (KHTML, like Gecko) Chrome/138.0.0.0 Safari/537.36
# Design number was non-random = 0
#
# Columns below this comment are as follows:
# 1. Results reception time.
# 2. MD5 hash of participant's IP address.
# 3. Controller name.
# 4. Order number of item.
# 5. Inner element number.
# 6. Label.
# 7. Latin Square Group.
# 8. PennElementType.
# 9. PennElementName.
# 10. Parameter.
# 11. Value.
# 12. EventTime.
# 13. ID.
# 14. Comments.
1751283248,33d34dc326d131479645c31b60cb4ff6,PennController,55,0,instructions1,NULL,PennController,4,_Trial_,Start,1751282976422,undefined,NULL
1751283248,33d34dc326d131479645c31b60cb4ff6,PennController,55,0,instructions1,NULL,PennController,4,_Header_,Start,1751282976422,undefined,NULL
1751283248,33d34dc326d131479645c31b60cb4ff6,PennController,55,0,instructions1,NULL,PennController,4,_Header_,End,1751282976423,undefined,NULL
1751283248,33d34dc326d131479645c31b60cb4ff6,PennController,55,0,instructions1,NULL,PennController,4,_Trial_,End,1751283020280,undefined,NULL
1751283248,33d34dc326d131479645c31b60cb4ff6,PennController,56,0,instructions2,NULL,PennController,5,_Trial_,Start,1751283020283,undefined,NULL
1751283248,33d34dc326d131479645c31b60cb4ff6,PennController,56,0,instructions2,NULL,PennController,5,_Header_,Start,1751283020283,undefined,NULL
1751283248,33d34dc326d131479645c31b60cb4ff6,PennController,56,0,instructions2,NULL,PennController,5,_Header_,End,1751283020283,undefined,NULL
1751283248,33d34dc326d131479645c31b60cb4ff6,PennController,56,0,instructions2,NULL,PennController,5,_Trial_,End,1751283029275,undefined,NULL
1751283248,33d34dc326d131479645c31b60cb4ff6,PennController,57,0,practice_intro,NULL,PennController,6,_Trial_,Start,1751283029276,undefined,NULL
1751283248,33d34dc326d131479645c31b60cb4ff6,PennController,57,0,practice_intro,NULL,PennController,6,_Header_,Start,1751283029276,undefined,NULL
1751283248,33d34dc326d131479645c31b60cb4ff6,PennController,57,0,practice_intro,NULL,PennController,6,_Header_,End,1751283029277,undefined,NULL
1751283248,33d34dc326d131479645c31b60cb4ff6,PennController,57,0,practice_intro,NULL,PennController,6,_Trial_,End,1751283031911,undefined,NULL
# 14. FeatureMatch.
# 15. Word1.
# 16. Word2.
# 17. Comments.
1751283248,33d34dc326d131479645c31b60cb4ff6,PennController,65,0,practice,NULL,PennController,64,_Trial_,Start,1751283031913,undefined,Dissimilar,smooth,rough,NULL
1751283248,33d34dc326d131479645c31b60cb4ff6,PennController,65,0,practice,NULL,PennController,64,_Header_,Start,1751283031913,undefined,Dissimilar,smooth,rough,NULL
1751283248,33d34dc326d131479645c31b60cb4ff6,PennController,65,0,practice,NULL,PennController,64,_Header_,End,1751283031914,undefined,Dissimilar,smooth,rough,NULL
1751283248,33d34dc326d131479645c31b60cb4ff6,PennController,65,0,practice,NULL,Scale,slider,Choice,0,1751283037668,undefined,Dissimilar,smooth,rough,1888
1751283248,33d34dc326d131479645c31b60cb4ff6,PennController,65,0,practice,NULL,PennController,64,_Trial_,End,1751283040059,undefined,Dissimilar,smooth,rough,NULL
1751283248,33d34dc326d131479645c31b60cb4ff6,PennController,60,0,practice,NULL,PennController,59,_Trial_,Start,1751283040061,undefined,Similar,disagree,dispute,NULL
1751283248,33d34dc326d131479645c31b60cb4ff6,PennController,60,0,practice,NULL,PennController,59,_Header_,Start,1751283040061,undefined,Similar,disagree,dispute,NULL
1751283248,33d34dc326d131479645c31b60cb4ff6,PennController,60,0,practice,NULL,PennController,59,_Header_,End,1751283040061,undefined,Similar,disagree,dispute,NULL
1751283248,33d34dc326d131479645c31b60cb4ff6,PennController,60,0,practice,NULL,Scale,slider,Choice,99,1751283043394,undefined,Similar,disagree,dispute,693
1751283248,33d34dc326d131479645c31b60cb4ff6,PennController,60,0,practice,NULL,PennController,59,_Trial_,End,1751283044384,undefined,Similar,disagree,dispute,NULL
1751283248,33d34dc326d131479645c31b60cb4ff6,PennController,63,0,practice,NULL,PennController,62,_Trial_,Start,1751283044385,undefined,Similar,couch,sofa,NULL
1751283248,33d34dc326d131479645c31b60cb4ff6,PennController,63,0,practice,NULL,PennController,62,_Header_,Start,1751283044385,undefined,Similar,couch,sofa,NULL
1751283248,33d34dc326d131479645c31b60cb4ff6,PennController,63,0,practice,NULL,PennController,62,_Header_,End,1751283044385,undefined,Similar,couch,sofa,NULL
1751283248,33d34dc326d131479645c31b60cb4ff6,PennController,63,0,practice,NULL,Scale,slider,Choice,87,1751283046682,undefined,Similar,couch,sofa,772
1751283248,33d34dc326d131479645c31b60cb4ff6,PennController,63,0,practice,NULL,PennController,62,_Trial_,End,1751283047479,undefined,Similar,couch,sofa,NULL
1751283248,33d34dc326d131479645c31b60cb4ff6,PennController,59,0,practice,NULL,PennController,58,_Trial_,Start,1751283047481,undefined,Similar,cat,feline,NULL
1751283248,33d34dc326d131479645c31b60cb4ff6,PennController,59,0,practice,NULL,PennController,58,_Header_,Start,1751283047481,undefined,Similar,cat,feline,NULL
1751283248,33d34dc326d131479645c31b60cb4ff6,PennController,59,0,practice,NULL,PennController,58,_Header_,End,1751283047481,undefined,Similar,cat,feline,NULL
1751283248,33d34dc326d131479645c31b60cb4ff6,PennController,59,0,practice,NULL,Scale,slider,Choice,91,1751283049464,undefined,Similar,cat,feline,713
1751283248,33d34dc326d131479645c31b60cb4ff6,PennController,59,0,practice,NULL,PennController,58,_Trial_,End,1751283050446,undefined,Similar,cat,feline,NULL
1751283248,33d34dc326d131479645c31b60cb4ff6,PennController,68,0,practice,NULL,PennController,67,_Trial_,Start,1751283050447,undefined,Dissimilar,ocean,castle,NULL
1751283248,33d34dc326d131479645c31b60cb4ff6,PennController,68,0,practice,NULL,PennController,67,_Header_,Start,1751283050447,undefined,Dissimilar,ocean,castle,NULL
1751283248,33d34dc326d131479645c31b60cb4ff6,PennController,68,0,practice,NULL,PennController,67,_Header_,End,1751283050447,undefined,Dissimilar,ocean,castle,NULL
1751283248,33d34dc326d131479645c31b60cb4ff6,PennController,68,0,practice,NULL,Scale,slider,Choice,31,1751283054017,undefined,Dissimilar,ocean,castle,971
1751283248,33d34dc326d131479645c31b60cb4ff6,PennController,68,0,practice,NULL,PennController,67,_Trial_,End,1751283054863,undefined,Dissimilar,ocean,castle,NULL
1751283248,33d34dc326d131479645c31b60cb4ff6,PennController,67,0,practice,NULL,PennController,66,_Trial_,Start,1751283054864,undefined,Dissimilar,plant,building,NULL
1751283248,33d34dc326d131479645c31b60cb4ff6,PennController,67,0,practice,NULL,PennController,66,_Header_,Start,1751283054864,undefined,Dissimilar,plant,building,NULL
1751283248,33d34dc326d131479645c31b60cb4ff6,PennController,67,0,practice,NULL,PennController,66,_Header_,End,1751283054864,undefined,Dissimilar,plant,building,NULL
1751283248,33d34dc326d131479645c31b60cb4ff6,PennController,67,0,practice,NULL,Scale,slider,Choice,0,1751283058417,undefined,Dissimilar,plant,building,536
1751283248,33d34dc326d131479645c31b60cb4ff6,PennController,67,0,practice,NULL,PennController,66,_Trial_,End,1751283059190,undefined,Dissimilar,plant,building,NULL
1751283248,33d34dc326d131479645c31b60cb4ff6,PennController,62,0,practice,NULL,PennController,61,_Trial_,Start,1751283059191,undefined,Similar,cup,mug,NULL
1751283248,33d34dc326d131479645c31b60cb4ff6,PennController,62,0,practice,NULL,PennController,61,_Header_,Start,1751283059191,undefined,Similar,cup,mug,NULL
1751283248,33d34dc326d131479645c31b60cb4ff6,PennController,62,0,practice,NULL,PennController,61,_Header_,End,1751283059191,undefined,Similar,cup,mug,NULL
1751283248,33d34dc326d131479645c31b60cb4ff6,PennController,62,0,practice,NULL,Scale,slider,Choice,94,1751283061971,undefined,Similar,cup,mug,597
1751283248,33d34dc326d131479645c31b60cb4ff6,PennController,62,0,practice,NULL,PennController,61,_Trial_,End,1751283062735,undefined,Similar,cup,mug,NULL
1751283248,33d34dc326d131479645c31b60cb4ff6,PennController,61,0,practice,NULL,PennController,60,_Trial_,Start,1751283062737,undefined,Similar,canine,dog,NULL
1751283248,33d34dc326d131479645c31b60cb4ff6,PennController,61,0,practice,NULL,PennController,60,_Header_,Start,1751283062737,undefined,Similar,canine,dog,NULL
1751283248,33d34dc326d131479645c31b60cb4ff6,PennController,61,0,practice,NULL,PennController,60,_Header_,End,1751283062737,undefined,Similar,canine,dog,NULL
1751283248,33d34dc326d131479645c31b60cb4ff6,PennController,61,0,practice,NULL,Scale,slider,Choice,95,1751283065786,undefined,Similar,canine,dog,775
1751283248,33d34dc326d131479645c31b60cb4ff6,PennController,61,0,practice,NULL,PennController,60,_Trial_,End,1751283066916,undefined,Similar,canine,dog,NULL
1751283248,33d34dc326d131479645c31b60cb4ff6,PennController,66,0,practice,NULL,PennController,65,_Trial_,Start,1751283066917,undefined,Dissimilar,summer,winter,NULL
1751283248,33d34dc326d131479645c31b60cb4ff6,PennController,66,0,practice,NULL,PennController,65,_Header_,Start,1751283066917,undefined,Dissimilar,summer,winter,NULL
1751283248,33d34dc326d131479645c31b60cb4ff6,PennController,66,0,practice,NULL,PennController,65,_Header_,End,1751283066917,undefined,Dissimilar,summer,winter,NULL
1751283248,33d34dc326d131479645c31b60cb4ff6,PennController,66,0,practice,NULL,Scale,slider,Choice,30,1751283069493,undefined,Dissimilar,summer,winter,828
1751283248,33d34dc326d131479645c31b60cb4ff6,PennController,66,0,practice,NULL,PennController,65,_Trial_,End,1751283070359,undefined,Dissimilar,summer,winter,NULL
1751283248,33d34dc326d131479645c31b60cb4ff6,PennController,64,0,practice,NULL,PennController,63,_Trial_,Start,1751283070360,undefined,Dissimilar,obstruct,help,NULL
1751283248,33d34dc326d131479645c31b60cb4ff6,PennController,64,0,practice,NULL,PennController,63,_Header_,Start,1751283070360,undefined,Dissimilar,obstruct,help,NULL
1751283248,33d34dc326d131479645c31b60cb4ff6,PennController,64,0,practice,NULL,PennController,63,_Header_,End,1751283070360,undefined,Dissimilar,obstruct,help,NULL
1751283248,33d34dc326d131479645c31b60cb4ff6,PennController,64,0,practice,NULL,Scale,slider,Choice,0,1751283073134,undefined,Dissimilar,obstruct,help,575
1751283248,33d34dc326d131479645c31b60cb4ff6,PennController,64,0,practice,NULL,PennController,63,_Trial_,End,1751283074142,undefined,Dissimilar,obstruct,help,NULL
# 14. Comments.
1751283248,33d34dc326d131479645c31b60cb4ff6,PennController,58,0,end_instructions,NULL,PennController,7,_Trial_,Start,1751283074143,undefined,NULL
1751283248,33d34dc326d131479645c31b60cb4ff6,PennController,58,0,end_instructions,NULL,PennController,7,_Header_,Start,1751283074143,undefined,NULL
1751283248,33d34dc326d131479645c31b60cb4ff6,PennController,58,0,end_instructions,NULL,PennController,7,_Header_,End,1751283074143,undefined,NULL
1751283248,33d34dc326d131479645c31b60cb4ff6,PennController,58,0,end_instructions,NULL,PennController,7,_Trial_,End,1751283078570,undefined,NULL
# 14. FeatureMatch.
# 15. Word1.
# 16. Word2.
# 17. Comments.
1751283248,33d34dc326d131479645c31b60cb4ff6,PennController,40,0,test,NULL,PennController,45,_Trial_,Start,1751283078571,undefined,SelfPair,cherish,cherish,NULL
1751283248,33d34dc326d131479645c31b60cb4ff6,PennController,40,0,test,NULL,PennController,45,_Header_,Start,1751283078571,undefined,SelfPair,cherish,cherish,NULL
1751283248,33d34dc326d131479645c31b60cb4ff6,PennController,40,0,test,NULL,PennController,45,_Header_,End,1751283078571,undefined,SelfPair,cherish,cherish,NULL
1751283248,33d34dc326d131479645c31b60cb4ff6,PennController,40,0,test,NULL,Scale,slider,Choice,99,1751283084797,undefined,SelfPair,cherish,cherish,3062
1751283248,33d34dc326d131479645c31b60cb4ff6,PennController,40,0,test,NULL,PennController,45,_Trial_,End,1751283085618,undefined,SelfPair,cherish,cherish,NULL
1751283248,33d34dc326d131479645c31b60cb4ff6,PennController,35,0,test,NULL,PennController,40,_Trial_,Start,1751283085619,undefined,SelfPair,twinkle,twinkle,NULL
1751283248,33d34dc326d131479645c31b60cb4ff6,PennController,35,0,test,NULL,PennController,40,_Header_,Start,1751283085619,undefined,SelfPair,twinkle,twinkle,NULL
1751283248,33d34dc326d131479645c31b60cb4ff6,PennController,35,0,test,NULL,PennController,40,_Header_,End,1751283085619,undefined,SelfPair,twinkle,twinkle,NULL
1751283248,33d34dc326d131479645c31b60cb4ff6,PennController,35,0,test,NULL,Scale,slider,Choice,99,1751283087697,undefined,SelfPair,twinkle,twinkle,634
1751283248,33d34dc326d131479645c31b60cb4ff6,PennController,35,0,test,NULL,PennController,40,_Trial_,End,1751283090041,undefined,SelfPair,twinkle,twinkle,NULL
1751283248,33d34dc326d131479645c31b60cb4ff6,PennController,45,0,test,NULL,PennController,50,_Trial_,Start,1751283090043,undefined,ValenceMatchingOnly,cuddle,like,NULL
1751283248,33d34dc326d131479645c31b60cb4ff6,PennController,45,0,test,NULL,PennController,50,_Header_,Start,1751283090043,undefined,ValenceMatchingOnly,cuddle,like,NULL
1751283248,33d34dc326d131479645c31b60cb4ff6,PennController,45,0,test,NULL,PennController,50,_Header_,End,1751283090043,undefined,ValenceMatchingOnly,cuddle,like,NULL
1751283248,33d34dc326d131479645c31b60cb4ff6,PennController,45,0,test,NULL,Scale,slider,Choice,68,1751283094079,undefined,ValenceMatchingOnly,cuddle,like,656
1751283248,33d34dc326d131479645c31b60cb4ff6,PennController,45,0,test,NULL,PennController,50,_Trial_,End,1751283094873,undefined,ValenceMatchingOnly,cuddle,like,NULL
1751283248,33d34dc326d131479645c31b60cb4ff6,PennController,46,0,test,NULL,PennController,51,_Trial_,Start,1751283094874,undefined,ValenceMatchingOnly,crash,criticize,NULL
1751283248,33d34dc326d131479645c31b60cb4ff6,PennController,46,0,test,NULL,PennController,51,_Header_,Start,1751283094874,undefined,ValenceMatchingOnly,crash,criticize,NULL
1751283248,33d34dc326d131479645c31b60cb4ff6,PennController,46,0,test,NULL,PennController,51,_Header_,End,1751283094874,undefined,ValenceMatchingOnly,crash,criticize,NULL
1751283248,33d34dc326d131479645c31b60cb4ff6,PennController,46,0,test,NULL,Scale,slider,Choice,17,1751283097070,undefined,ValenceMatchingOnly,crash,criticize,764
1751283248,33d34dc326d131479645c31b60cb4ff6,PennController,46,0,test,NULL,PennController,51,_Trial_,End,1751283097895,undefined,ValenceMatchingOnly,crash,criticize,NULL
1751283248,33d34dc326d131479645c31b60cb4ff6,PennController,28,0,test,NULL,PennController,33,_Trial_,Start,1751283097896,undefined,MaxMismatch,encourage,tear,NULL
1751283248,33d34dc326d131479645c31b60cb4ff6,PennController,28,0,test,NULL,PennController,33,_Header_,Start,1751283097896,undefined,MaxMismatch,encourage,tear,NULL
1751283248,33d34dc326d131479645c31b60cb4ff6,PennController,28,0,test,NULL,PennController,33,_Header_,End,1751283097896,undefined,MaxMismatch,encourage,tear,NULL
1751283248,33d34dc326d131479645c31b60cb4ff6,PennController,28,0,test,NULL,Scale,slider,Choice,0,1751283100146,undefined,MaxMismatch,encourage,tear,787
1751283248,33d34dc326d131479645c31b60cb4ff6,PennController,28,0,test,NULL,PennController,33,_Trial_,End,1751283100905,undefined,MaxMismatch,encourage,tear,NULL
1751283248,33d34dc326d131479645c31b60cb4ff6,PennController,33,0,test,NULL,PennController,38,_Trial_,Start,1751283100906,undefined,SelfPair,produce,produce,NULL
1751283248,33d34dc326d131479645c31b60cb4ff6,PennController,33,0,test,NULL,PennController,38,_Header_,Start,1751283100906,undefined,SelfPair,produce,produce,NULL
1751283248,33d34dc326d131479645c31b60cb4ff6,PennController,33,0,test,NULL,PennController,38,_Header_,End,1751283100906,undefined,SelfPair,produce,produce,NULL
1751283248,33d34dc326d131479645c31b60cb4ff6,PennController,33,0,test,NULL,Scale,slider,Choice,99,1751283102899,undefined,SelfPair,produce,produce,596
1751283248,33d34dc326d131479645c31b60cb4ff6,PennController,33,0,test,NULL,PennController,38,_Trial_,End,1751283103939,undefined,SelfPair,produce,produce,NULL
1751283248,33d34dc326d131479645c31b60cb4ff6,PennController,32,0,test,NULL,PennController,37,_Trial_,Start,1751283103940,undefined,MaxMismatch,hug,dismay,NULL
1751283248,33d34dc326d131479645c31b60cb4ff6,PennController,32,0,test,NULL,PennController,37,_Header_,Start,1751283103940,undefined,MaxMismatch,hug,dismay,NULL
1751283248,33d34dc326d131479645c31b60cb4ff6,PennController,32,0,test,NULL,PennController,37,_Header_,End,1751283103941,undefined,MaxMismatch,hug,dismay,NULL
1751283248,33d34dc326d131479645c31b60cb4ff6,PennController,32,0,test,NULL,Scale,slider,Choice,0,1751283106146,undefined,MaxMismatch,hug,dismay,602
1751283248,33d34dc326d131479645c31b60cb4ff6,PennController,32,0,test,NULL,PennController,37,_Trial_,End,1751283106982,undefined,MaxMismatch,hug,dismay,NULL
1751283248,33d34dc326d131479645c31b60cb4ff6,PennController,37,0,test,NULL,PennController,42,_Trial_,Start,1751283106983,undefined,SelfPair,dismay,dismay,NULL
1751283248,33d34dc326d131479645c31b60cb4ff6,PennController,37,0,test,NULL,PennController,42,_Header_,Start,1751283106983,undefined,SelfPair,dismay,dismay,NULL
1751283248,33d34dc326d131479645c31b60cb4ff6,PennController,37,0,test,NULL,PennController,42,_Header_,End,1751283106983,undefined,SelfPair,dismay,dismay,NULL
1751283248,33d34dc326d131479645c31b60cb4ff6,PennController,37,0,test,NULL,Scale,slider,Choice,99,1751283108940,undefined,SelfPair,dismay,dismay,613
1751283248,33d34dc326d131479645c31b60cb4ff6,PennController,37,0,test,NULL,PennController,42,_Trial_,End,1751283109915,undefined,SelfPair,dismay,dismay,NULL
1751283248,33d34dc326d131479645c31b60cb4ff6,PennController,13,0,test,NULL,PennController,18,_Trial_,Start,1751283109917,undefined,MaxMatch,slaughter,tear,NULL
1751283248,33d34dc326d131479645c31b60cb4ff6,PennController,13,0,test,NULL,PennController,18,_Header_,Start,1751283109917,undefined,MaxMatch,slaughter,tear,NULL
1751283248,33d34dc326d131479645c31b60cb4ff6,PennController,13,0,test,NULL,PennController,18,_Header_,End,1751283109917,undefined,MaxMatch,slaughter,tear,NULL
1751283248,33d34dc326d131479645c31b60cb4ff6,PennController,13,0,test,NULL,Scale,slider,Choice,12,1751283112334,undefined,MaxMatch,slaughter,tear,1089
1751283248,33d34dc326d131479645c31b60cb4ff6,PennController,13,0,test,NULL,PennController,18,_Trial_,End,1751283113202,undefined,MaxMatch,slaughter,tear,NULL
1751283248,33d34dc326d131479645c31b60cb4ff6,PennController,34,0,test,NULL,PennController,39,_Trial_,Start,1751283113203,undefined,SelfPair,impress,impress,NULL
1751283248,33d34dc326d131479645c31b60cb4ff6,PennController,34,0,test,NULL,PennController,39,_Header_,Start,1751283113203,undefined,SelfPair,impress,impress,NULL
1751283248,33d34dc326d131479645c31b60cb4ff6,PennController,34,0,test,NULL,PennController,39,_Header_,End,1751283113204,undefined,SelfPair,impress,impress,NULL
1751283248,33d34dc326d131479645c31b60cb4ff6,PennController,34,0,test,NULL,Scale,slider,Choice,99,1751283115663,undefined,SelfPair,impress,impress,761
1751283248,33d34dc326d131479645c31b60cb4ff6,PennController,34,0,test,NULL,PennController,39,_Trial_,End,1751283116894,undefined,SelfPair,impress,impress,NULL
1751283248,33d34dc326d131479645c31b60cb4ff6,PennController,7,0,test,NULL,PennController,12,_Trial_,Start,1751283116895,undefined,ConceptualMatchingOnly,sculpt,corrode,NULL
1751283248,33d34dc326d131479645c31b60cb4ff6,PennController,7,0,test,NULL,PennController,12,_Header_,Start,1751283116895,undefined,ConceptualMatchingOnly,sculpt,corrode,NULL
1751283248,33d34dc326d131479645c31b60cb4ff6,PennController,7,0,test,NULL,PennController,12,_Header_,End,1751283116895,undefined,ConceptualMatchingOnly,sculpt,corrode,NULL
1751283248,33d34dc326d131479645c31b60cb4ff6,PennController,7,0,test,NULL,Scale,slider,Choice,0,1751283118897,undefined,ConceptualMatchingOnly,sculpt,corrode,456
1751283248,33d34dc326d131479645c31b60cb4ff6,PennController,7,0,test,NULL,PennController,12,_Trial_,End,1751283119692,undefined,ConceptualMatchingOnly,sculpt,corrode,NULL
1751283248,33d34dc326d131479645c31b60cb4ff6,PennController,52,0,test,NULL,PennController,57,_Trial_,Start,1751283119693,undefined,ValenceMatchingOnly,hit,dread,NULL
1751283248,33d34dc326d131479645c31b60cb4ff6,PennController,52,0,test,NULL,PennController,57,_Header_,Start,1751283119693,undefined,ValenceMatchingOnly,hit,dread,NULL
1751283248,33d34dc326d131479645c31b60cb4ff6,PennController,52,0,test,NULL,PennController,57,_Header_,End,1751283119693,undefined,ValenceMatchingOnly,hit,dread,NULL
1751283248,33d34dc326d131479645c31b60cb4ff6,PennController,52,0,test,NULL,Scale,slider,Choice,0,1751283123088,undefined,ValenceMatchingOnly,hit,dread,440
1751283248,33d34dc326d131479645c31b60cb4ff6,PennController,52,0,test,NULL,PennController,57,_Trial_,End,1751283123990,undefined,ValenceMatchingOnly,hit,dread,NULL
1751283248,33d34dc326d131479645c31b60cb4ff6,PennController,41,0,test,NULL,PennController,46,_Trial_,Start,1751283123992,undefined,SelfPair,embarrass,embarrass,NULL
1751283248,33d34dc326d131479645c31b60cb4ff6,PennController,41,0,test,NULL,PennController,46,_Header_,Start,1751283123992,undefined,SelfPair,embarrass,embarrass,NULL
1751283248,33d34dc326d131479645c31b60cb4ff6,PennController,41,0,test,NULL,PennController,46,_Header_,End,1751283123992,undefined,SelfPair,embarrass,embarrass,NULL
1751283248,33d34dc326d131479645c31b60cb4ff6,PennController,41,0,test,NULL,Scale,slider,Choice,99,1751283126853,undefined,SelfPair,embarrass,embarrass,459
1751283248,33d34dc326d131479645c31b60cb4ff6,PennController,41,0,test,NULL,PennController,46,_Trial_,End,1751283127876,undefined,SelfPair,embarrass,embarrass,NULL
1751283248,33d34dc326d131479645c31b60cb4ff6,PennController,27,0,test,NULL,PennController,32,_Trial_,Start,1751283127877,undefined,MaxMismatch,produce,dishonor,NULL
1751283248,33d34dc326d131479645c31b60cb4ff6,PennController,27,0,test,NULL,PennController,32,_Header_,Start,1751283127877,undefined,MaxMismatch,produce,dishonor,NULL
1751283248,33d34dc326d131479645c31b60cb4ff6,PennController,27,0,test,NULL,PennController,32,_Header_,End,1751283127877,undefined,MaxMismatch,produce,dishonor,NULL
1751283248,33d34dc326d131479645c31b60cb4ff6,PennController,27,0,test,NULL,Scale,slider,Choice,0,1751283129953,undefined,MaxMismatch,produce,dishonor,687
1751283248,33d34dc326d131479645c31b60cb4ff6,PennController,27,0,test,NULL,PennController,32,_Trial_,End,1751283131041,undefined,MaxMismatch,produce,dishonor,NULL
1751283248,33d34dc326d131479645c31b60cb4ff6,PennController,5,0,test,NULL,PennController,10,_Trial_,Start,1751283131042,undefined,ConceptualMatchingOnly,reassure,criticize,NULL
1751283248,33d34dc326d131479645c31b60cb4ff6,PennController,5,0,test,NULL,PennController,10,_Header_,Start,1751283131042,undefined,ConceptualMatchingOnly,reassure,criticize,NULL
1751283248,33d34dc326d131479645c31b60cb4ff6,PennController,5,0,test,NULL,PennController,10,_Header_,End,1751283131042,undefined,ConceptualMatchingOnly,reassure,criticize,NULL
1751283248,33d34dc326d131479645c31b60cb4ff6,PennController,5,0,test,NULL,Scale,slider,Choice,0,1751283133588,undefined,ConceptualMatchingOnly,reassure,criticize,491
1751283248,33d34dc326d131479645c31b60cb4ff6,PennController,5,0,test,NULL,PennController,10,_Trial_,End,1751283134367,undefined,ConceptualMatchingOnly,reassure,criticize,NULL
1751283248,33d34dc326d131479645c31b60cb4ff6,PennController,39,0,test,NULL,PennController,44,_Trial_,Start,1751283134368,undefined,SelfPair,clean,clean,NULL
1751283248,33d34dc326d131479645c31b60cb4ff6,PennController,39,0,test,NULL,PennController,44,_Header_,Start,1751283134369,undefined,SelfPair,clean,clean,NULL
1751283248,33d34dc326d131479645c31b60cb4ff6,PennController,39,0,test,NULL,PennController,44,_Header_,End,1751283134369,undefined,SelfPair,clean,clean,NULL
1751283248,33d34dc326d131479645c31b60cb4ff6,PennController,39,0,test,NULL,Scale,slider,Choice,99,1751283136547,undefined,SelfPair,clean,clean,503
1751283248,33d34dc326d131479645c31b60cb4ff6,PennController,39,0,test,NULL,PennController,44,_Trial_,End,1751283137509,undefined,SelfPair,clean,clean,NULL
1751283248,33d34dc326d131479645c31b60cb4ff6,PennController,20,0,test,NULL,PennController,25,_Trial_,Start,1751283137510,undefined,MaxMatch,displease,dismay,NULL
1751283248,33d34dc326d131479645c31b60cb4ff6,PennController,20,0,test,NULL,PennController,25,_Header_,Start,1751283137510,undefined,MaxMatch,displease,dismay,NULL
1751283248,33d34dc326d131479645c31b60cb4ff6,PennController,20,0,test,NULL,PennController,25,_Header_,End,1751283137510,undefined,MaxMatch,displease,dismay,NULL
1751283248,33d34dc326d131479645c31b60cb4ff6,PennController,20,0,test,NULL,Scale,slider,Choice,19,1751283139790,undefined,MaxMatch,displease,dismay,687
1751283248,33d34dc326d131479645c31b60cb4ff6,PennController,20,0,test,NULL,PennController,25,_Trial_,End,1751283140961,undefined,MaxMatch,displease,dismay,NULL
1751283248,33d34dc326d131479645c31b60cb4ff6,PennController,48,0,test,NULL,PennController,53,_Trial_,Start,1751283140962,undefined,ValenceMatchingOnly,stain,dismay,NULL
1751283248,33d34dc326d131479645c31b60cb4ff6,PennController,48,0,test,NULL,PennController,53,_Header_,Start,1751283140962,undefined,ValenceMatchingOnly,stain,dismay,NULL
1751283248,33d34dc326d131479645c31b60cb4ff6,PennController,48,0,test,NULL,PennController,53,_Header_,End,1751283140962,undefined,ValenceMatchingOnly,stain,dismay,NULL
1751283248,33d34dc326d131479645c31b60cb4ff6,PennController,48,0,test,NULL,Scale,slider,Choice,0,1751283142858,undefined,ValenceMatchingOnly,stain,dismay,476
1751283248,33d34dc326d131479645c31b60cb4ff6,PennController,48,0,test,NULL,PennController,53,_Trial_,End,1751283143669,undefined,ValenceMatchingOnly,stain,dismay,NULL
1751283248,33d34dc326d131479645c31b60cb4ff6,PennController,6,0,test,NULL,PennController,11,_Trial_,Start,1751283143671,undefined,ConceptualMatchingOnly,encourage,embarrass,NULL
1751283248,33d34dc326d131479645c31b60cb4ff6,PennController,6,0,test,NULL,PennController,11,_Header_,Start,1751283143671,undefined,ConceptualMatchingOnly,encourage,embarrass,NULL
1751283248,33d34dc326d131479645c31b60cb4ff6,PennController,6,0,test,NULL,PennController,11,_Header_,End,1751283143671,undefined,ConceptualMatchingOnly,encourage,embarrass,NULL
1751283248,33d34dc326d131479645c31b60cb4ff6,PennController,6,0,test,NULL,Scale,slider,Choice,0,1751283145857,undefined,ConceptualMatchingOnly,encourage,embarrass,581
1751283248,33d34dc326d131479645c31b60cb4ff6,PennController,6,0,test,NULL,PennController,11,_Trial_,End,1751283147288,undefined,ConceptualMatchingOnly,encourage,embarrass,NULL
1751283248,33d34dc326d131479645c31b60cb4ff6,PennController,4,0,test,NULL,PennController,9,_Trial_,Start,1751283147289,undefined,ConceptualMatchingOnly,caress,rust,NULL
1751283248,33d34dc326d131479645c31b60cb4ff6,PennController,4,0,test,NULL,PennController,9,_Header_,Start,1751283147289,undefined,ConceptualMatchingOnly,caress,rust,NULL
1751283248,33d34dc326d131479645c31b60cb4ff6,PennController,4,0,test,NULL,PennController,9,_Header_,End,1751283147289,undefined,ConceptualMatchingOnly,caress,rust,NULL
1751283248,33d34dc326d131479645c31b60cb4ff6,PennController,4,0,test,NULL,Scale,slider,Choice,0,1751283149691,undefined,ConceptualMatchingOnly,caress,rust,571
1751283248,33d34dc326d131479645c31b60cb4ff6,PennController,4,0,test,NULL,PennController,9,_Trial_,End,1751283150460,undefined,ConceptualMatchingOnly,caress,rust,NULL
1751283248,33d34dc326d131479645c31b60cb4ff6,PennController,15,0,test,NULL,PennController,20,_Trial_,Start,1751283150461,undefined,MaxMatch,repair,caress,NULL
1751283248,33d34dc326d131479645c31b60cb4ff6,PennController,15,0,test,NULL,PennController,20,_Header_,Start,1751283150461,undefined,MaxMatch,repair,caress,NULL
1751283248,33d34dc326d131479645c31b60cb4ff6,PennController,15,0,test,NULL,PennController,20,_Header_,End,1751283150461,undefined,MaxMatch,repair,caress,NULL
1751283248,33d34dc326d131479645c31b60cb4ff6,PennController,15,0,test,NULL,Scale,slider,Choice,0,1751283152545,undefined,MaxMatch,repair,caress,473
1751283248,33d34dc326d131479645c31b60cb4ff6,PennController,15,0,test,NULL,PennController,20,_Trial_,End,1751283153481,undefined,MaxMatch,repair,caress,NULL
1751283248,33d34dc326d131479645c31b60cb4ff6,PennController,42,0,test,NULL,PennController,47,_Trial_,Start,1751283153482,undefined,SelfPair,dread,dread,NULL
1751283248,33d34dc326d131479645c31b60cb4ff6,PennController,42,0,test,NULL,PennController,47,_Header_,Start,1751283153482,undefined,SelfPair,dread,dread,NULL
1751283248,33d34dc326d131479645c31b60cb4ff6,PennController,42,0,test,NULL,PennController,47,_Header_,End,1751283153482,undefined,SelfPair,dread,dread,NULL
1751283248,33d34dc326d131479645c31b60cb4ff6,PennController,42,0,test,NULL,Scale,slider,Choice,99,1751283155688,undefined,SelfPair,dread,dread,540
1751283248,33d34dc326d131479645c31b60cb4ff6,PennController,42,0,test,NULL,PennController,47,_Trial_,End,1751283157150,undefined,SelfPair,dread,dread,NULL
1751283248,33d34dc326d131479645c31b60cb4ff6,PennController,3,0,test,NULL,PennController,8,_Trial_,Start,1751283157151,undefined,ConceptualMatchingOnly,clean,burn,NULL
1751283248,33d34dc326d131479645c31b60cb4ff6,PennController,3,0,test,NULL,PennController,8,_Header_,Start,1751283157151,undefined,ConceptualMatchingOnly,clean,burn,NULL
1751283248,33d34dc326d131479645c31b60cb4ff6,PennController,3,0,test,NULL,PennController,8,_Header_,End,1751283157151,undefined,ConceptualMatchingOnly,clean,burn,NULL
1751283248,33d34dc326d131479645c31b60cb4ff6,PennController,3,0,test,NULL,Scale,slider,Choice,11,1751283159345,undefined,ConceptualMatchingOnly,clean,burn,648
1751283248,33d34dc326d131479645c31b60cb4ff6,PennController,3,0,test,NULL,PennController,8,_Trial_,End,1751283160274,undefined,ConceptualMatchingOnly,clean,burn,NULL
1751283248,33d34dc326d131479645c31b60cb4ff6,PennController,11,0,test,NULL,PennController,16,_Trial_,Start,1751283160275,undefined,ConceptualMatchingOnly,produce,hit,NULL
1751283248,33d34dc326d131479645c31b60cb4ff6,PennController,11,0,test,NULL,PennController,16,_Header_,Start,1751283160275,undefined,ConceptualMatchingOnly,produce,hit,NULL
1751283248,33d34dc326d131479645c31b60cb4ff6,PennController,11,0,test,NULL,PennController,16,_Header_,End,1751283160275,undefined,ConceptualMatchingOnly,produce,hit,NULL
1751283248,33d34dc326d131479645c31b60cb4ff6,PennController,11,0,test,NULL,Scale,slider,Choice,0,1751283162347,undefined,ConceptualMatchingOnly,produce,hit,469
1751283248,33d34dc326d131479645c31b60cb4ff6,PennController,11,0,test,NULL,PennController,16,_Trial_,End,1751283163256,undefined,ConceptualMatchingOnly,produce,hit,NULL
1751283248,33d34dc326d131479645c31b60cb4ff6,PennController,16,0,test,NULL,PennController,21,_Trial_,Start,1751283163257,undefined,MaxMatch,like,cherish,NULL
1751283248,33d34dc326d131479645c31b60cb4ff6,PennController,16,0,test,NULL,PennController,21,_Header_,Start,1751283163257,undefined,MaxMatch,like,cherish,NULL
1751283248,33d34dc326d131479645c31b60cb4ff6,PennController,16,0,test,NULL,PennController,21,_Header_,End,1751283163257,undefined,MaxMatch,like,cherish,NULL
1751283248,33d34dc326d131479645c31b60cb4ff6,PennController,16,0,test,NULL,Scale,slider,Choice,99,1751283165137,undefined,MaxMatch,like,cherish,411
1751283248,33d34dc326d131479645c31b60cb4ff6,PennController,16,0,test,NULL,PennController,21,_Trial_,End,1751283166244,undefined,MaxMatch,like,cherish,NULL
1751283248,33d34dc326d131479645c31b60cb4ff6,PennController,49,0,test,NULL,PennController,54,_Trial_,Start,1751283166245,undefined,ValenceMatchingOnly,clean,content,NULL
1751283248,33d34dc326d131479645c31b60cb4ff6,PennController,49,0,test,NULL,PennController,54,_Header_,Start,1751283166245,undefined,ValenceMatchingOnly,clean,content,NULL
1751283248,33d34dc326d131479645c31b60cb4ff6,PennController,49,0,test,NULL,PennController,54,_Header_,End,1751283166245,undefined,ValenceMatchingOnly,clean,content,NULL
1751283248,33d34dc326d131479645c31b60cb4ff6,PennController,49,0,test,NULL,Scale,slider,Choice,5,1751283168835,undefined,ValenceMatchingOnly,clean,content,1343
1751283248,33d34dc326d131479645c31b60cb4ff6,PennController,49,0,test,NULL,PennController,54,_Trial_,End,1751283169972,undefined,ValenceMatchingOnly,clean,content,NULL
1751283248,33d34dc326d131479645c31b60cb4ff6,PennController,51,0,test,NULL,PennController,56,_Trial_,Start,1751283169973,undefined,ValenceMatchingOnly,slaughter,offend,NULL
1751283248,33d34dc326d131479645c31b60cb4ff6,PennController,51,0,test,NULL,PennController,56,_Header_,Start,1751283169973,undefined,ValenceMatchingOnly,slaughter,offend,NULL
1751283248,33d34dc326d131479645c31b60cb4ff6,PennController,51,0,test,NULL,PennController,56,_Header_,End,1751283169973,undefined,ValenceMatchingOnly,slaughter,offend,NULL
1751283248,33d34dc326d131479645c31b60cb4ff6,PennController,51,0,test,NULL,Scale,slider,Choice,56,1751283173348,undefined,ValenceMatchingOnly,slaughter,offend,1993
1751283248,33d34dc326d131479645c31b60cb4ff6,PennController,51,0,test,NULL,PennController,56,_Trial_,End,1751283174097,undefined,ValenceMatchingOnly,slaughter,offend,NULL
1751283248,33d34dc326d131479645c31b60cb4ff6,PennController,10,0,test,NULL,PennController,15,_Trial_,Start,1751283174098,undefined,ConceptualMatchingOnly,twinkle,delete,NULL
1751283248,33d34dc326d131479645c31b60cb4ff6,PennController,10,0,test,NULL,PennController,15,_Header_,Start,1751283174098,undefined,ConceptualMatchingOnly,twinkle,delete,NULL
1751283248,33d34dc326d131479645c31b60cb4ff6,PennController,10,0,test,NULL,PennController,15,_Header_,End,1751283174098,undefined,ConceptualMatchingOnly,twinkle,delete,NULL
1751283248,33d34dc326d131479645c31b60cb4ff6,PennController,10,0,test,NULL,Scale,slider,Choice,0,1751283176300,undefined,ConceptualMatchingOnly,twinkle,delete,440
1751283248,33d34dc326d131479645c31b60cb4ff6,PennController,10,0,test,NULL,PennController,15,_Trial_,End,1751283177500,undefined,ConceptualMatchingOnly,twinkle,delete,NULL
1751283248,33d34dc326d131479645c31b60cb4ff6,PennController,18,0,test,NULL,PennController,23,_Trial_,Start,1751283177501,undefined,MaxMatch,appreciate,adore,NULL
1751283248,33d34dc326d131479645c31b60cb4ff6,PennController,18,0,test,NULL,PennController,23,_Header_,Start,1751283177501,undefined,MaxMatch,appreciate,adore,NULL
1751283248,33d34dc326d131479645c31b60cb4ff6,PennController,18,0,test,NULL,PennController,23,_Header_,End,1751283177501,undefined,MaxMatch,appreciate,adore,NULL
1751283248,33d34dc326d131479645c31b60cb4ff6,PennController,18,0,test,NULL,Scale,slider,Choice,88,1751283180435,undefined,MaxMatch,appreciate,adore,911
1751283248,33d34dc326d131479645c31b60cb4ff6,PennController,18,0,test,NULL,PennController,23,_Trial_,End,1751283181255,undefined,MaxMatch,appreciate,adore,NULL
1751283248,33d34dc326d131479645c31b60cb4ff6,PennController,17,0,test,NULL,PennController,22,_Trial_,Start,1751283181256,undefined,MaxMatch,despair,criticize,NULL
1751283248,33d34dc326d131479645c31b60cb4ff6,PennController,17,0,test,NULL,PennController,22,_Header_,Start,1751283181256,undefined,MaxMatch,despair,criticize,NULL
1751283248,33d34dc326d131479645c31b60cb4ff6,PennController,17,0,test,NULL,PennController,22,_Header_,End,1751283181256,undefined,MaxMatch,despair,criticize,NULL
1751283248,33d34dc326d131479645c31b60cb4ff6,PennController,17,0,test,NULL,Scale,slider,Choice,12,1751283183754,undefined,MaxMatch,despair,criticize,953
1751283248,33d34dc326d131479645c31b60cb4ff6,PennController,17,0,test,NULL,PennController,22,_Trial_,End,1751283184562,undefined,MaxMatch,despair,criticize,NULL
1751283248,33d34dc326d131479645c31b60cb4ff6,PennController,21,0,test,NULL,PennController,26,_Trial_,Start,1751283184564,undefined,MaxMatch,cuddle,build,NULL
1751283248,33d34dc326d131479645c31b60cb4ff6,PennController,21,0,test,NULL,PennController,26,_Header_,Start,1751283184564,undefined,MaxMatch,cuddle,build,NULL
1751283248,33d34dc326d131479645c31b60cb4ff6,PennController,21,0,test,NULL,PennController,26,_Header_,End,1751283184564,undefined,MaxMatch,cuddle,build,NULL
1751283248,33d34dc326d131479645c31b60cb4ff6,PennController,21,0,test,NULL,Scale,slider,Choice,0,1751283186385,undefined,MaxMatch,cuddle,build,574
1751283248,33d34dc326d131479645c31b60cb4ff6,PennController,21,0,test,NULL,PennController,26,_Trial_,End,1751283187189,undefined,MaxMatch,cuddle,build,NULL
1751283248,33d34dc326d131479645c31b60cb4ff6,PennController,19,0,test,NULL,PennController,24,_Trial_,Start,1751283187190,undefined,MaxMatch,reassure,respect,NULL
1751283248,33d34dc326d131479645c31b60cb4ff6,PennController,19,0,test,NULL,PennController,24,_Header_,Start,1751283187190,undefined,MaxMatch,reassure,respect,NULL
1751283248,33d34dc326d131479645c31b60cb4ff6,PennController,19,0,test,NULL,PennController,24,_Header_,End,1751283187191,undefined,MaxMatch,reassure,respect,NULL
1751283248,33d34dc326d131479645c31b60cb4ff6,PennController,19,0,test,NULL,Scale,slider,Choice,71,1751283189147,undefined,MaxMatch,reassure,respect,447
1751283248,33d34dc326d131479645c31b60cb4ff6,PennController,19,0,test,NULL,PennController,24,_Trial_,End,1751283190002,undefined,MaxMatch,reassure,respect,NULL
1751283248,33d34dc326d131479645c31b60cb4ff6,PennController,12,0,test,NULL,PennController,17,_Trial_,Start,1751283190003,undefined,ConceptualMatchingOnly,decorate,slash,NULL
1751283248,33d34dc326d131479645c31b60cb4ff6,PennController,12,0,test,NULL,PennController,17,_Header_,Start,1751283190003,undefined,ConceptualMatchingOnly,decorate,slash,NULL
1751283248,33d34dc326d131479645c31b60cb4ff6,PennController,12,0,test,NULL,PennController,17,_Header_,End,1751283190004,undefined,ConceptualMatchingOnly,decorate,slash,NULL
1751283248,33d34dc326d131479645c31b60cb4ff6,PennController,12,0,test,NULL,Scale,slider,Choice,0,1751283191995,undefined,ConceptualMatchingOnly,decorate,slash,636
1751283248,33d34dc326d131479645c31b60cb4ff6,PennController,12,0,test,NULL,PennController,17,_Trial_,End,1751283192955,undefined,ConceptualMatchingOnly,decorate,slash,NULL
1751283248,33d34dc326d131479645c31b60cb4ff6,PennController,29,0,test,NULL,PennController,34,_Trial_,Start,1751283192956,undefined,MaxMismatch,adore,rust,NULL
1751283248,33d34dc326d131479645c31b60cb4ff6,PennController,29,0,test,NULL,PennController,34,_Header_,Start,1751283192956,undefined,MaxMismatch,adore,rust,NULL
1751283248,33d34dc326d131479645c31b60cb4ff6,PennController,29,0,test,NULL,PennController,34,_Header_,End,1751283192956,undefined,MaxMismatch,adore,rust,NULL
1751283248,33d34dc326d131479645c31b60cb4ff6,PennController,29,0,test,NULL,Scale,slider,Choice,0,1751283195478,undefined,MaxMismatch,adore,rust,656
1751283248,33d34dc326d131479645c31b60cb4ff6,PennController,29,0,test,NULL,PennController,34,_Trial_,End,1751283196462,undefined,MaxMismatch,adore,rust,NULL
1751283248,33d34dc326d131479645c31b60cb4ff6,PennController,44,0,test,NULL,PennController,49,_Trial_,Start,1751283196463,undefined,ValenceMatchingOnly,caress,admire,NULL
1751283248,33d34dc326d131479645c31b60cb4ff6,PennController,44,0,test,NULL,PennController,49,_Header_,Start,1751283196463,undefined,ValenceMatchingOnly,caress,admire,NULL
1751283248,33d34dc326d131479645c31b60cb4ff6,PennController,44,0,test,NULL,PennController,49,_Header_,End,1751283196463,undefined,ValenceMatchingOnly,caress,admire,NULL
1751283248,33d34dc326d131479645c31b60cb4ff6,PennController,44,0,test,NULL,Scale,slider,Choice,28,1751283198545,undefined,ValenceMatchingOnly,caress,admire,424
1751283248,33d34dc326d131479645c31b60cb4ff6,PennController,44,0,test,NULL,PennController,49,_Trial_,End,1751283200036,undefined,ValenceMatchingOnly,caress,admire,NULL
1751283248,33d34dc326d131479645c31b60cb4ff6,PennController,25,0,test,NULL,PennController,30,_Trial_,Start,1751283200037,undefined,MaxMismatch,reassure,stain,NULL
1751283248,33d34dc326d131479645c31b60cb4ff6,PennController,25,0,test,NULL,PennController,30,_Header_,Start,1751283200037,undefined,MaxMismatch,reassure,stain,NULL
1751283248,33d34dc326d131479645c31b60cb4ff6,PennController,25,0,test,NULL,PennController,30,_Header_,End,1751283200037,undefined,MaxMismatch,reassure,stain,NULL
1751283248,33d34dc326d131479645c31b60cb4ff6,PennController,25,0,test,NULL,Scale,slider,Choice,0,1751283202467,undefined,MaxMismatch,reassure,stain,683
1751283248,33d34dc326d131479645c31b60cb4ff6,PennController,25,0,test,NULL,PennController,30,_Trial_,End,1751283203456,undefined,MaxMismatch,reassure,stain,NULL
1751283248,33d34dc326d131479645c31b60cb4ff6,PennController,43,0,test,NULL,PennController,48,_Trial_,Start,1751283203457,undefined,ValenceMatchingOnly,slash,displease,NULL
1751283248,33d34dc326d131479645c31b60cb4ff6,PennController,43,0,test,NULL,PennController,48,_Header_,Start,1751283203457,undefined,ValenceMatchingOnly,slash,displease,NULL
1751283248,33d34dc326d131479645c31b60cb4ff6,PennController,43,0,test,NULL,PennController,48,_Header_,End,1751283203457,undefined,ValenceMatchingOnly,slash,displease,NULL
1751283248,33d34dc326d131479645c31b60cb4ff6,PennController,43,0,test,NULL,Scale,slider,Choice,8,1751283205523,undefined,ValenceMatchingOnly,slash,displease,693
1751283248,33d34dc326d131479645c31b60cb4ff6,PennController,43,0,test,NULL,PennController,48,_Trial_,End,1751283206372,undefined,ValenceMatchingOnly,slash,displease,NULL
1751283248,33d34dc326d131479645c31b60cb4ff6,PennController,36,0,test,NULL,PennController,41,_Trial_,Start,1751283206374,undefined,SelfPair,cuddle,cuddle,NULL
1751283248,33d34dc326d131479645c31b60cb4ff6,PennController,36,0,test,NULL,PennController,41,_Header_,Start,1751283206374,undefined,SelfPair,cuddle,cuddle,NULL
1751283248,33d34dc326d131479645c31b60cb4ff6,PennController,36,0,test,NULL,PennController,41,_Header_,End,1751283206374,undefined,SelfPair,cuddle,cuddle,NULL
1751283248,33d34dc326d131479645c31b60cb4ff6,PennController,36,0,test,NULL,Scale,slider,Choice,99,1751283208679,undefined,SelfPair,cuddle,cuddle,592
1751283248,33d34dc326d131479645c31b60cb4ff6,PennController,36,0,test,NULL,PennController,41,_Trial_,End,1751283209619,undefined,SelfPair,cuddle,cuddle,NULL
1751283248,33d34dc326d131479645c31b60cb4ff6,PennController,24,0,test,NULL,PennController,29,_Trial_,Start,1751283209620,undefined,MaxMismatch,twinkle,displease,NULL
1751283248,33d34dc326d131479645c31b60cb4ff6,PennController,24,0,test,NULL,PennController,29,_Header_,Start,1751283209620,undefined,MaxMismatch,twinkle,displease,NULL
1751283248,33d34dc326d131479645c31b60cb4ff6,PennController,24,0,test,NULL,PennController,29,_Header_,End,1751283209620,undefined,MaxMismatch,twinkle,displease,NULL
1751283248,33d34dc326d131479645c31b60cb4ff6,PennController,24,0,test,NULL,Scale,slider,Choice,0,1751283211800,undefined,MaxMismatch,twinkle,displease,873
1751283248,33d34dc326d131479645c31b60cb4ff6,PennController,24,0,test,NULL,PennController,29,_Trial_,End,1751283212741,undefined,MaxMismatch,twinkle,displease,NULL
1751283248,33d34dc326d131479645c31b60cb4ff6,PennController,38,0,test,NULL,PennController,43,_Trial_,Start,1751283212742,undefined,SelfPair,rust,rust,NULL
1751283248,33d34dc326d131479645c31b60cb4ff6,PennController,38,0,test,NULL,PennController,43,_Header_,Start,1751283212742,undefined,SelfPair,rust,rust,NULL
1751283248,33d34dc326d131479645c31b60cb4ff6,PennController,38,0,test,NULL,PennController,43,_Header_,End,1751283212742,undefined,SelfPair,rust,rust,NULL
1751283248,33d34dc326d131479645c31b60cb4ff6,PennController,38,0,test,NULL,Scale,slider,Choice,99,1751283214661,undefined,SelfPair,rust,rust,652
1751283248,33d34dc326d131479645c31b60cb4ff6,PennController,38,0,test,NULL,PennController,43,_Trial_,End,1751283215678,undefined,SelfPair,rust,rust,NULL
1751283248,33d34dc326d131479645c31b60cb4ff6,PennController,50,0,test,NULL,PennController,55,_Trial_,Start,1751283215679,undefined,ValenceMatchingOnly,decorate,impress,NULL
1751283248,33d34dc326d131479645c31b60cb4ff6,PennController,50,0,test,NULL,PennController,55,_Header_,Start,1751283215679,undefined,ValenceMatchingOnly,decorate,impress,NULL
1751283248,33d34dc326d131479645c31b60cb4ff6,PennController,50,0,test,NULL,PennController,55,_Header_,End,1751283215679,undefined,ValenceMatchingOnly,decorate,impress,NULL
1751283248,33d34dc326d131479645c31b60cb4ff6,PennController,50,0,test,NULL,Scale,slider,Choice,28,1751283217874,undefined,ValenceMatchingOnly,decorate,impress,589
1751283248,33d34dc326d131479645c31b60cb4ff6,PennController,50,0,test,NULL,PennController,55,_Trial_,End,1751283218708,undefined,ValenceMatchingOnly,decorate,impress,NULL
1751283248,33d34dc326d131479645c31b60cb4ff6,PennController,9,0,test,NULL,PennController,14,_Trial_,Start,1751283218709,undefined,ConceptualMatchingOnly,adore,irritate,NULL
1751283248,33d34dc326d131479645c31b60cb4ff6,PennController,9,0,test,NULL,PennController,14,_Header_,Start,1751283218709,undefined,ConceptualMatchingOnly,adore,irritate,NULL
1751283248,33d34dc326d131479645c31b60cb4ff6,PennController,9,0,test,NULL,PennController,14,_Header_,End,1751283218709,undefined,ConceptualMatchingOnly,adore,irritate,NULL
1751283248,33d34dc326d131479645c31b60cb4ff6,PennController,9,0,test,NULL,Scale,slider,Choice,0,1751283220645,undefined,ConceptualMatchingOnly,adore,irritate,523
1751283248,33d34dc326d131479645c31b60cb4ff6,PennController,9,0,test,NULL,PennController,14,_Trial_,End,1751283221358,undefined,ConceptualMatchingOnly,adore,irritate,NULL
1751283248,33d34dc326d131479645c31b60cb4ff6,PennController,26,0,test,NULL,PennController,31,_Trial_,Start,1751283221359,undefined,MaxMismatch,repair,criticize,NULL
1751283248,33d34dc326d131479645c31b60cb4ff6,PennController,26,0,test,NULL,PennController,31,_Header_,Start,1751283221359,undefined,MaxMismatch,repair,criticize,NULL
1751283248,33d34dc326d131479645c31b60cb4ff6,PennController,26,0,test,NULL,PennController,31,_Header_,End,1751283221359,undefined,MaxMismatch,repair,criticize,NULL
1751283248,33d34dc326d131479645c31b60cb4ff6,PennController,26,0,test,NULL,Scale,slider,Choice,2,1751283226651,undefined,MaxMismatch,repair,criticize,963
1751283248,33d34dc326d131479645c31b60cb4ff6,PennController,26,0,test,NULL,PennController,31,_Trial_,End,1751283227519,undefined,MaxMismatch,repair,criticize,NULL
1751283248,33d34dc326d131479645c31b60cb4ff6,PennController,47,0,test,NULL,PennController,52,_Trial_,Start,1751283227520,undefined,ValenceMatchingOnly,tear,embarrass,NULL
1751283248,33d34dc326d131479645c31b60cb4ff6,PennController,47,0,test,NULL,PennController,52,_Header_,Start,1751283227520,undefined,ValenceMatchingOnly,tear,embarrass,NULL
1751283248,33d34dc326d131479645c31b60cb4ff6,PennController,47,0,test,NULL,PennController,52,_Header_,End,1751283227520,undefined,ValenceMatchingOnly,tear,embarrass,NULL
1751283248,33d34dc326d131479645c31b60cb4ff6,PennController,47,0,test,NULL,Scale,slider,Choice,0,1751283229576,undefined,ValenceMatchingOnly,tear,embarrass,480
1751283248,33d34dc326d131479645c31b60cb4ff6,PennController,47,0,test,NULL,PennController,52,_Trial_,End,1751283230463,undefined,ValenceMatchingOnly,tear,embarrass,NULL
1751283248,33d34dc326d131479645c31b60cb4ff6,PennController,23,0,test,NULL,PennController,28,_Trial_,Start,1751283230464,undefined,MaxMismatch,impress,burn,NULL
1751283248,33d34dc326d131479645c31b60cb4ff6,PennController,23,0,test,NULL,PennController,28,_Header_,Start,1751283230464,undefined,MaxMismatch,impress,burn,NULL
1751283248,33d34dc326d131479645c31b60cb4ff6,PennController,23,0,test,NULL,PennController,28,_Header_,End,1751283230465,undefined,MaxMismatch,impress,burn,NULL
1751283248,33d34dc326d131479645c31b60cb4ff6,PennController,23,0,test,NULL,Scale,slider,Choice,0,1751283232135,undefined,MaxMismatch,impress,burn,379
1751283248,33d34dc326d131479645c31b60cb4ff6,PennController,23,0,test,NULL,PennController,28,_Trial_,End,1751283232950,undefined,MaxMismatch,impress,burn,NULL
1751283248,33d34dc326d131479645c31b60cb4ff6,PennController,14,0,test,NULL,PennController,19,_Trial_,Start,1751283232951,undefined,MaxMatch,rust,crash,NULL
1751283248,33d34dc326d131479645c31b60cb4ff6,PennController,14,0,test,NULL,PennController,19,_Header_,Start,1751283232951,undefined,MaxMatch,rust,crash,NULL
1751283248,33d34dc326d131479645c31b60cb4ff6,PennController,14,0,test,NULL,PennController,19,_Header_,End,1751283232951,undefined,MaxMatch,rust,crash,NULL
1751283248,33d34dc326d131479645c31b60cb4ff6,PennController,14,0,test,NULL,Scale,slider,Choice,0,1751283235343,undefined,MaxMatch,rust,crash,881
1751283248,33d34dc326d131479645c31b60cb4ff6,PennController,14,0,test,NULL,PennController,19,_Trial_,End,1751283236180,undefined,MaxMatch,rust,crash,NULL
1751283248,33d34dc326d131479645c31b60cb4ff6,PennController,30,0,test,NULL,PennController,35,_Trial_,Start,1751283236181,undefined,MaxMismatch,cuddle,dread,NULL
1751283248,33d34dc326d131479645c31b60cb4ff6,PennController,30,0,test,NULL,PennController,35,_Header_,Start,1751283236181,undefined,MaxMismatch,cuddle,dread,NULL
1751283248,33d34dc326d131479645c31b60cb4ff6,PennController,30,0,test,NULL,PennController,35,_Header_,End,1751283236182,undefined,MaxMismatch,cuddle,dread,NULL
1751283248,33d34dc326d131479645c31b60cb4ff6,PennController,30,0,test,NULL,Scale,slider,Choice,0,1751283238205,undefined,MaxMismatch,cuddle,dread,445
1751283248,33d34dc326d131479645c31b60cb4ff6,PennController,30,0,test,NULL,PennController,35,_Trial_,End,1751283239058,undefined,MaxMismatch,cuddle,dread,NULL
1751283248,33d34dc326d131479645c31b60cb4ff6,PennController,8,0,test,NULL,PennController,13,_Trial_,Start,1751283239059,undefined,ConceptualMatchingOnly,admire,offend,NULL
1751283248,33d34dc326d131479645c31b60cb4ff6,PennController,8,0,test,NULL,PennController,13,_Header_,Start,1751283239059,undefined,ConceptualMatchingOnly,admire,offend,NULL
1751283248,33d34dc326d131479645c31b60cb4ff6,PennController,8,0,test,NULL,PennController,13,_Header_,End,1751283239059,undefined,ConceptualMatchingOnly,admire,offend,NULL
1751283248,33d34dc326d131479645c31b60cb4ff6,PennController,8,0,test,NULL,Scale,slider,Choice,0,1751283241232,undefined,ConceptualMatchingOnly,admire,offend,475
1751283248,33d34dc326d131479645c31b60cb4ff6,PennController,8,0,test,NULL,PennController,13,_Trial_,End,1751283242072,undefined,ConceptualMatchingOnly,admire,offend,NULL
1751283248,33d34dc326d131479645c31b60cb4ff6,PennController,22,0,test,NULL,PennController,27,_Trial_,Start,1751283242073,undefined,MaxMatch,produce,clean,NULL
1751283248,33d34dc326d131479645c31b60cb4ff6,PennController,22,0,test,NULL,PennController,27,_Header_,Start,1751283242073,undefined,MaxMatch,produce,clean,NULL
1751283248,33d34dc326d131479645c31b60cb4ff6,PennController,22,0,test,NULL,PennController,27,_Header_,End,1751283242074,undefined,MaxMatch,produce,clean,NULL
1751283248,33d34dc326d131479645c31b60cb4ff6,PennController,22,0,test,NULL,Scale,slider,Choice,39,1751283244624,undefined,MaxMatch,produce,clean,561
1751283248,33d34dc326d131479645c31b60cb4ff6,PennController,22,0,test,NULL,PennController,27,_Trial_,End,1751283245451,undefined,MaxMatch,produce,clean,NULL
1751283248,33d34dc326d131479645c31b60cb4ff6,PennController,31,0,test,NULL,PennController,36,_Trial_,Start,1751283245452,undefined,MaxMismatch,caress,embarrass,NULL
1751283248,33d34dc326d131479645c31b60cb4ff6,PennController,31,0,test,NULL,PennController,36,_Header_,Start,1751283245452,undefined,MaxMismatch,caress,embarrass,NULL
1751283248,33d34dc326d131479645c31b60cb4ff6,PennController,31,0,test,NULL,PennController,36,_Header_,End,1751283245452,undefined,MaxMismatch,caress,embarrass,NULL
1751283248,33d34dc326d131479645c31b60cb4ff6,PennController,31,0,test,NULL,Scale,slider,Choice,0,1751283247552,undefined,MaxMismatch,caress,embarrass,565
1751283248,33d34dc326d131479645c31b60cb4ff6,PennController,31,0,test,NULL,PennController,36,_Trial_,End,1751283248378,undefined,MaxMismatch,caress,embarrass,NULL
#
# Results on Mon, 30 Jun 2025 11:35:09 GMT
# USER AGENT: Mozilla/5.0 (Windows NT 10.0; Win64; x64) AppleWebKit/537.36 (KHTML, like Gecko) Chrome/138.0.0.0 Safari/537.36 Edg/138.0.0.0
# Design number was non-random = 0
#
# Columns below this comment are as follows:
# 1. Results reception time.
# 2. MD5 hash of participant's IP address.
# 3. Controller name.
# 4. Order number of item.
# 5. Inner element number.
# 6. Label.
# 7. Latin Square Group.
# 8. PennElementType.
# 9. PennElementName.
# 10. Parameter.
# 11. Value.
# 12. EventTime.
# 13. ID.
# 14. Comments.
1751283309,cd246d0b4d0a42edff2a0aa1e96a4f1c,PennController,55,0,instructions1,NULL,PennController,4,_Trial_,Start,1751283090147,undefined,NULL
1751283309,cd246d0b4d0a42edff2a0aa1e96a4f1c,PennController,55,0,instructions1,NULL,PennController,4,_Header_,Start,1751283090148,undefined,NULL
1751283309,cd246d0b4d0a42edff2a0aa1e96a4f1c,PennController,55,0,instructions1,NULL,PennController,4,_Header_,End,1751283090148,undefined,NULL
1751283309,cd246d0b4d0a42edff2a0aa1e96a4f1c,PennController,55,0,instructions1,NULL,PennController,4,_Trial_,End,1751283098460,undefined,NULL
1751283309,cd246d0b4d0a42edff2a0aa1e96a4f1c,PennController,56,0,instructions2,NULL,PennController,5,_Trial_,Start,1751283098462,undefined,NULL
1751283309,cd246d0b4d0a42edff2a0aa1e96a4f1c,PennController,56,0,instructions2,NULL,PennController,5,_Header_,Start,1751283098462,undefined,NULL
1751283309,cd246d0b4d0a42edff2a0aa1e96a4f1c,PennController,56,0,instructions2,NULL,PennController,5,_Header_,End,1751283098462,undefined,NULL
1751283309,cd246d0b4d0a42edff2a0aa1e96a4f1c,PennController,56,0,instructions2,NULL,PennController,5,_Trial_,End,1751283106747,undefined,NULL
1751283309,cd246d0b4d0a42edff2a0aa1e96a4f1c,PennController,57,0,practice_intro,NULL,PennController,6,_Trial_,Start,1751283106748,undefined,NULL
1751283309,cd246d0b4d0a42edff2a0aa1e96a4f1c,PennController,57,0,practice_intro,NULL,PennController,6,_Header_,Start,1751283106748,undefined,NULL
1751283309,cd246d0b4d0a42edff2a0aa1e96a4f1c,PennController,57,0,practice_intro,NULL,PennController,6,_Header_,End,1751283106748,undefined,NULL
1751283309,cd246d0b4d0a42edff2a0aa1e96a4f1c,PennController,57,0,practice_intro,NULL,PennController,6,_Trial_,End,1751283108629,undefined,NULL
# 14. FeatureMatch.
# 15. Word1.
# 16. Word2.
# 17. Comments.
1751283309,cd246d0b4d0a42edff2a0aa1e96a4f1c,PennController,60,0,practice,NULL,PennController,59,_Trial_,Start,1751283108629,undefined,Similar,disagree,dispute,NULL
1751283309,cd246d0b4d0a42edff2a0aa1e96a4f1c,PennController,60,0,practice,NULL,PennController,59,_Header_,Start,1751283108629,undefined,Similar,disagree,dispute,NULL
1751283309,cd246d0b4d0a42edff2a0aa1e96a4f1c,PennController,60,0,practice,NULL,PennController,59,_Header_,End,1751283108630,undefined,Similar,disagree,dispute,NULL
1751283309,cd246d0b4d0a42edff2a0aa1e96a4f1c,PennController,60,0,practice,NULL,Scale,slider,Choice,99,1751283116283,undefined,Similar,disagree,dispute,202
1751283309,cd246d0b4d0a42edff2a0aa1e96a4f1c,PennController,60,0,practice,NULL,PennController,59,_Trial_,End,1751283117244,undefined,Similar,disagree,dispute,NULL
1751283309,cd246d0b4d0a42edff2a0aa1e96a4f1c,PennController,63,0,practice,NULL,PennController,62,_Trial_,Start,1751283117245,undefined,Similar,couch,sofa,NULL
1751283309,cd246d0b4d0a42edff2a0aa1e96a4f1c,PennController,63,0,practice,NULL,PennController,62,_Header_,Start,1751283117245,undefined,Similar,couch,sofa,NULL
1751283309,cd246d0b4d0a42edff2a0aa1e96a4f1c,PennController,63,0,practice,NULL,PennController,62,_Header_,End,1751283117245,undefined,Similar,couch,sofa,NULL
1751283309,cd246d0b4d0a42edff2a0aa1e96a4f1c,PennController,63,0,practice,NULL,Scale,slider,Choice,99,1751283119434,undefined,Similar,couch,sofa,92
1751283309,cd246d0b4d0a42edff2a0aa1e96a4f1c,PennController,63,0,practice,NULL,PennController,62,_Trial_,End,1751283120031,undefined,Similar,couch,sofa,NULL
1751283309,cd246d0b4d0a42edff2a0aa1e96a4f1c,PennController,59,0,practice,NULL,PennController,58,_Trial_,Start,1751283120032,undefined,Similar,cat,feline,NULL
1751283309,cd246d0b4d0a42edff2a0aa1e96a4f1c,PennController,59,0,practice,NULL,PennController,58,_Header_,Start,1751283120032,undefined,Similar,cat,feline,NULL
1751283309,cd246d0b4d0a42edff2a0aa1e96a4f1c,PennController,59,0,practice,NULL,PennController,58,_Header_,End,1751283120032,undefined,Similar,cat,feline,NULL
1751283309,cd246d0b4d0a42edff2a0aa1e96a4f1c,PennController,59,0,practice,NULL,Scale,slider,Choice,99,1751283122347,undefined,Similar,cat,feline,116
1751283309,cd246d0b4d0a42edff2a0aa1e96a4f1c,PennController,59,0,practice,NULL,PennController,58,_Trial_,End,1751283122974,undefined,Similar,cat,feline,NULL
1751283309,cd246d0b4d0a42edff2a0aa1e96a4f1c,PennController,65,0,practice,NULL,PennController,64,_Trial_,Start,1751283122975,undefined,Dissimilar,smooth,rough,NULL
1751283309,cd246d0b4d0a42edff2a0aa1e96a4f1c,PennController,65,0,practice,NULL,PennController,64,_Header_,Start,1751283122975,undefined,Dissimilar,smooth,rough,NULL
1751283309,cd246d0b4d0a42edff2a0aa1e96a4f1c,PennController,65,0,practice,NULL,PennController,64,_Header_,End,1751283122975,undefined,Dissimilar,smooth,rough,NULL
1751283309,cd246d0b4d0a42edff2a0aa1e96a4f1c,PennController,65,0,practice,NULL,Scale,slider,Choice,0,1751283124531,undefined,Dissimilar,smooth,rough,131
1751283309,cd246d0b4d0a42edff2a0aa1e96a4f1c,PennController,65,0,practice,NULL,PennController,64,_Trial_,End,1751283125343,undefined,Dissimilar,smooth,rough,NULL
1751283309,cd246d0b4d0a42edff2a0aa1e96a4f1c,PennController,62,0,practice,NULL,PennController,61,_Trial_,Start,1751283125344,undefined,Similar,cup,mug,NULL
1751283309,cd246d0b4d0a42edff2a0aa1e96a4f1c,PennController,62,0,practice,NULL,PennController,61,_Header_,Start,1751283125344,undefined,Similar,cup,mug,NULL
1751283309,cd246d0b4d0a42edff2a0aa1e96a4f1c,PennController,62,0,practice,NULL,PennController,61,_Header_,End,1751283125344,undefined,Similar,cup,mug,NULL
1751283309,cd246d0b4d0a42edff2a0aa1e96a4f1c,PennController,62,0,practice,NULL,Scale,slider,Choice,99,1751283126776,undefined,Similar,cup,mug,93
1751283309,cd246d0b4d0a42edff2a0aa1e96a4f1c,PennController,62,0,practice,NULL,PennController,61,_Trial_,End,1751283127489,undefined,Similar,cup,mug,NULL
1751283309,cd246d0b4d0a42edff2a0aa1e96a4f1c,PennController,61,0,practice,NULL,PennController,60,_Trial_,Start,1751283127490,undefined,Similar,canine,dog,NULL
1751283309,cd246d0b4d0a42edff2a0aa1e96a4f1c,PennController,61,0,practice,NULL,PennController,60,_Header_,Start,1751283127490,undefined,Similar,canine,dog,NULL
1751283309,cd246d0b4d0a42edff2a0aa1e96a4f1c,PennController,61,0,practice,NULL,PennController,60,_Header_,End,1751283127490,undefined,Similar,canine,dog,NULL
1751283309,cd246d0b4d0a42edff2a0aa1e96a4f1c,PennController,61,0,practice,NULL,Scale,slider,Choice,99,1751283129386,undefined,Similar,canine,dog,85
1751283309,cd246d0b4d0a42edff2a0aa1e96a4f1c,PennController,61,0,practice,NULL,PennController,60,_Trial_,End,1751283130215,undefined,Similar,canine,dog,NULL
1751283309,cd246d0b4d0a42edff2a0aa1e96a4f1c,PennController,67,0,practice,NULL,PennController,66,_Trial_,Start,1751283130216,undefined,Dissimilar,plant,building,NULL
1751283309,cd246d0b4d0a42edff2a0aa1e96a4f1c,PennController,67,0,practice,NULL,PennController,66,_Header_,Start,1751283130216,undefined,Dissimilar,plant,building,NULL
1751283309,cd246d0b4d0a42edff2a0aa1e96a4f1c,PennController,67,0,practice,NULL,PennController,66,_Header_,End,1751283130216,undefined,Dissimilar,plant,building,NULL
1751283309,cd246d0b4d0a42edff2a0aa1e96a4f1c,PennController,67,0,practice,NULL,Scale,slider,Choice,55,1751283138137,undefined,Dissimilar,plant,building,749
1751283309,cd246d0b4d0a42edff2a0aa1e96a4f1c,PennController,67,0,practice,NULL,PennController,66,_Trial_,End,1751283138798,undefined,Dissimilar,plant,building,NULL
1751283309,cd246d0b4d0a42edff2a0aa1e96a4f1c,PennController,66,0,practice,NULL,PennController,65,_Trial_,Start,1751283138798,undefined,Dissimilar,summer,winter,NULL
1751283309,cd246d0b4d0a42edff2a0aa1e96a4f1c,PennController,66,0,practice,NULL,PennController,65,_Header_,Start,1751283138798,undefined,Dissimilar,summer,winter,NULL
1751283309,cd246d0b4d0a42edff2a0aa1e96a4f1c,PennController,66,0,practice,NULL,PennController,65,_Header_,End,1751283138798,undefined,Dissimilar,summer,winter,NULL
1751283309,cd246d0b4d0a42edff2a0aa1e96a4f1c,PennController,66,0,practice,NULL,Scale,slider,Choice,0,1751283141057,undefined,Dissimilar,summer,winter,92
1751283309,cd246d0b4d0a42edff2a0aa1e96a4f1c,PennController,66,0,practice,NULL,PennController,65,_Trial_,End,1751283141817,undefined,Dissimilar,summer,winter,NULL
1751283309,cd246d0b4d0a42edff2a0aa1e96a4f1c,PennController,64,0,practice,NULL,PennController,63,_Trial_,Start,1751283141818,undefined,Dissimilar,obstruct,help,NULL
1751283309,cd246d0b4d0a42edff2a0aa1e96a4f1c,PennController,64,0,practice,NULL,PennController,63,_Header_,Start,1751283141818,undefined,Dissimilar,obstruct,help,NULL
1751283309,cd246d0b4d0a42edff2a0aa1e96a4f1c,PennController,64,0,practice,NULL,PennController,63,_Header_,End,1751283141818,undefined,Dissimilar,obstruct,help,NULL
1751283309,cd246d0b4d0a42edff2a0aa1e96a4f1c,PennController,64,0,practice,NULL,Scale,slider,Choice,0,1751283144829,undefined,Dissimilar,obstruct,help,123
1751283309,cd246d0b4d0a42edff2a0aa1e96a4f1c,PennController,64,0,practice,NULL,PennController,63,_Trial_,End,1751283145525,undefined,Dissimilar,obstruct,help,NULL
1751283309,cd246d0b4d0a42edff2a0aa1e96a4f1c,PennController,68,0,practice,NULL,PennController,67,_Trial_,Start,1751283145526,undefined,Dissimilar,ocean,castle,NULL
1751283309,cd246d0b4d0a42edff2a0aa1e96a4f1c,PennController,68,0,practice,NULL,PennController,67,_Header_,Start,1751283145526,undefined,Dissimilar,ocean,castle,NULL
1751283309,cd246d0b4d0a42edff2a0aa1e96a4f1c,PennController,68,0,practice,NULL,PennController,67,_Header_,End,1751283145526,undefined,Dissimilar,ocean,castle,NULL
1751283309,cd246d0b4d0a42edff2a0aa1e96a4f1c,PennController,68,0,practice,NULL,Scale,slider,Choice,0,1751283147360,undefined,Dissimilar,ocean,castle,90
1751283309,cd246d0b4d0a42edff2a0aa1e96a4f1c,PennController,68,0,practice,NULL,PennController,67,_Trial_,End,1751283148051,undefined,Dissimilar,ocean,castle,NULL
# 14. Comments.
1751283309,cd246d0b4d0a42edff2a0aa1e96a4f1c,PennController,58,0,end_instructions,NULL,PennController,7,_Trial_,Start,1751283148052,undefined,NULL
1751283309,cd246d0b4d0a42edff2a0aa1e96a4f1c,PennController,58,0,end_instructions,NULL,PennController,7,_Header_,Start,1751283148052,undefined,NULL
1751283309,cd246d0b4d0a42edff2a0aa1e96a4f1c,PennController,58,0,end_instructions,NULL,PennController,7,_Header_,End,1751283148052,undefined,NULL
1751283309,cd246d0b4d0a42edff2a0aa1e96a4f1c,PennController,58,0,end_instructions,NULL,PennController,7,_Trial_,End,1751283151551,undefined,NULL
# 14. FeatureMatch.
# 15. Word1.
# 16. Word2.
# 17. Comments.
1751283309,cd246d0b4d0a42edff2a0aa1e96a4f1c,PennController,47,0,test,NULL,PennController,52,_Trial_,Start,1751283151551,undefined,ValenceMatchingOnly,tear,embarrass,NULL
1751283309,cd246d0b4d0a42edff2a0aa1e96a4f1c,PennController,47,0,test,NULL,PennController,52,_Header_,Start,1751283151551,undefined,ValenceMatchingOnly,tear,embarrass,NULL
1751283309,cd246d0b4d0a42edff2a0aa1e96a4f1c,PennController,47,0,test,NULL,PennController,52,_Header_,End,1751283151551,undefined,ValenceMatchingOnly,tear,embarrass,NULL
1751283309,cd246d0b4d0a42edff2a0aa1e96a4f1c,PennController,47,0,test,NULL,Scale,slider,Choice,0,1751283155873,undefined,ValenceMatchingOnly,tear,embarrass,131
1751283309,cd246d0b4d0a42edff2a0aa1e96a4f1c,PennController,47,0,test,NULL,PennController,52,_Trial_,End,1751283157823,undefined,ValenceMatchingOnly,tear,embarrass,NULL
1751283309,cd246d0b4d0a42edff2a0aa1e96a4f1c,PennController,23,0,test,NULL,PennController,28,_Trial_,Start,1751283157824,undefined,MaxMismatch,impress,burn,NULL
1751283309,cd246d0b4d0a42edff2a0aa1e96a4f1c,PennController,23,0,test,NULL,PennController,28,_Header_,Start,1751283157824,undefined,MaxMismatch,impress,burn,NULL
1751283309,cd246d0b4d0a42edff2a0aa1e96a4f1c,PennController,23,0,test,NULL,PennController,28,_Header_,End,1751283157824,undefined,MaxMismatch,impress,burn,NULL
1751283309,cd246d0b4d0a42edff2a0aa1e96a4f1c,PennController,23,0,test,NULL,Scale,slider,Choice,0,1751283160324,undefined,MaxMismatch,impress,burn,93
1751283309,cd246d0b4d0a42edff2a0aa1e96a4f1c,PennController,23,0,test,NULL,PennController,28,_Trial_,End,1751283160975,undefined,MaxMismatch,impress,burn,NULL
1751283309,cd246d0b4d0a42edff2a0aa1e96a4f1c,PennController,8,0,test,NULL,PennController,13,_Trial_,Start,1751283160976,undefined,ConceptualMatchingOnly,admire,offend,NULL
1751283309,cd246d0b4d0a42edff2a0aa1e96a4f1c,PennController,8,0,test,NULL,PennController,13,_Header_,Start,1751283160976,undefined,ConceptualMatchingOnly,admire,offend,NULL
1751283309,cd246d0b4d0a42edff2a0aa1e96a4f1c,PennController,8,0,test,NULL,PennController,13,_Header_,End,1751283160976,undefined,ConceptualMatchingOnly,admire,offend,NULL
1751283309,cd246d0b4d0a42edff2a0aa1e96a4f1c,PennController,8,0,test,NULL,Scale,slider,Choice,0,1751283162670,undefined,ConceptualMatchingOnly,admire,offend,109
1751283309,cd246d0b4d0a42edff2a0aa1e96a4f1c,PennController,8,0,test,NULL,PennController,13,_Trial_,End,1751283163221,undefined,ConceptualMatchingOnly,admire,offend,NULL
1751283309,cd246d0b4d0a42edff2a0aa1e96a4f1c,PennController,34,0,test,NULL,PennController,39,_Trial_,Start,1751283163222,undefined,SelfPair,impress,impress,NULL
1751283309,cd246d0b4d0a42edff2a0aa1e96a4f1c,PennController,34,0,test,NULL,PennController,39,_Header_,Start,1751283163222,undefined,SelfPair,impress,impress,NULL
1751283309,cd246d0b4d0a42edff2a0aa1e96a4f1c,PennController,34,0,test,NULL,PennController,39,_Header_,End,1751283163222,undefined,SelfPair,impress,impress,NULL
1751283309,cd246d0b4d0a42edff2a0aa1e96a4f1c,PennController,34,0,test,NULL,Scale,slider,Choice,99,1751283164583,undefined,SelfPair,impress,impress,108
1751283309,cd246d0b4d0a42edff2a0aa1e96a4f1c,PennController,34,0,test,NULL,PennController,39,_Trial_,End,1751283165203,undefined,SelfPair,impress,impress,NULL
1751283309,cd246d0b4d0a42edff2a0aa1e96a4f1c,PennController,13,0,test,NULL,PennController,18,_Trial_,Start,1751283165204,undefined,MaxMatch,slaughter,tear,NULL
1751283309,cd246d0b4d0a42edff2a0aa1e96a4f1c,PennController,13,0,test,NULL,PennController,18,_Header_,Start,1751283165204,undefined,MaxMatch,slaughter,tear,NULL
1751283309,cd246d0b4d0a42edff2a0aa1e96a4f1c,PennController,13,0,test,NULL,PennController,18,_Header_,End,1751283165204,undefined,MaxMatch,slaughter,tear,NULL
1751283309,cd246d0b4d0a42edff2a0aa1e96a4f1c,PennController,13,0,test,NULL,Scale,slider,Choice,0,1751283167807,undefined,MaxMatch,slaughter,tear,95
1751283309,cd246d0b4d0a42edff2a0aa1e96a4f1c,PennController,13,0,test,NULL,PennController,18,_Trial_,End,1751283168487,undefined,MaxMatch,slaughter,tear,NULL
1751283309,cd246d0b4d0a42edff2a0aa1e96a4f1c,PennController,43,0,test,NULL,PennController,48,_Trial_,Start,1751283168488,undefined,ValenceMatchingOnly,slash,displease,NULL
1751283309,cd246d0b4d0a42edff2a0aa1e96a4f1c,PennController,43,0,test,NULL,PennController,48,_Header_,Start,1751283168488,undefined,ValenceMatchingOnly,slash,displease,NULL
1751283309,cd246d0b4d0a42edff2a0aa1e96a4f1c,PennController,43,0,test,NULL,PennController,48,_Header_,End,1751283168488,undefined,ValenceMatchingOnly,slash,displease,NULL
1751283309,cd246d0b4d0a42edff2a0aa1e96a4f1c,PennController,43,0,test,NULL,Scale,slider,Choice,0,1751283170423,undefined,ValenceMatchingOnly,slash,displease,108
1751283309,cd246d0b4d0a42edff2a0aa1e96a4f1c,PennController,43,0,test,NULL,PennController,48,_Trial_,End,1751283171221,undefined,ValenceMatchingOnly,slash,displease,NULL
1751283309,cd246d0b4d0a42edff2a0aa1e96a4f1c,PennController,50,0,test,NULL,PennController,55,_Trial_,Start,1751283171222,undefined,ValenceMatchingOnly,decorate,impress,NULL
1751283309,cd246d0b4d0a42edff2a0aa1e96a4f1c,PennController,50,0,test,NULL,PennController,55,_Header_,Start,1751283171222,undefined,ValenceMatchingOnly,decorate,impress,NULL
1751283309,cd246d0b4d0a42edff2a0aa1e96a4f1c,PennController,50,0,test,NULL,PennController,55,_Header_,End,1751283171222,undefined,ValenceMatchingOnly,decorate,impress,NULL
1751283309,cd246d0b4d0a42edff2a0aa1e96a4f1c,PennController,50,0,test,NULL,Scale,slider,Choice,0,1751283173180,undefined,ValenceMatchingOnly,decorate,impress,118
1751283309,cd246d0b4d0a42edff2a0aa1e96a4f1c,PennController,50,0,test,NULL,PennController,55,_Trial_,End,1751283173823,undefined,ValenceMatchingOnly,decorate,impress,NULL
1751283309,cd246d0b4d0a42edff2a0aa1e96a4f1c,PennController,48,0,test,NULL,PennController,53,_Trial_,Start,1751283173824,undefined,ValenceMatchingOnly,stain,dismay,NULL
1751283309,cd246d0b4d0a42edff2a0aa1e96a4f1c,PennController,48,0,test,NULL,PennController,53,_Header_,Start,1751283173824,undefined,ValenceMatchingOnly,stain,dismay,NULL
1751283309,cd246d0b4d0a42edff2a0aa1e96a4f1c,PennController,48,0,test,NULL,PennController,53,_Header_,End,1751283173824,undefined,ValenceMatchingOnly,stain,dismay,NULL
1751283309,cd246d0b4d0a42edff2a0aa1e96a4f1c,PennController,48,0,test,NULL,Scale,slider,Choice,0,1751283175441,undefined,ValenceMatchingOnly,stain,dismay,115
1751283309,cd246d0b4d0a42edff2a0aa1e96a4f1c,PennController,48,0,test,NULL,PennController,53,_Trial_,End,1751283176217,undefined,ValenceMatchingOnly,stain,dismay,NULL
1751283309,cd246d0b4d0a42edff2a0aa1e96a4f1c,PennController,14,0,test,NULL,PennController,19,_Trial_,Start,1751283176217,undefined,MaxMatch,rust,crash,NULL
1751283309,cd246d0b4d0a42edff2a0aa1e96a4f1c,PennController,14,0,test,NULL,PennController,19,_Header_,Start,1751283176217,undefined,MaxMatch,rust,crash,NULL
1751283309,cd246d0b4d0a42edff2a0aa1e96a4f1c,PennController,14,0,test,NULL,PennController,19,_Header_,End,1751283176217,undefined,MaxMatch,rust,crash,NULL
1751283309,cd246d0b4d0a42edff2a0aa1e96a4f1c,PennController,14,0,test,NULL,Scale,slider,Choice,0,1751283177859,undefined,MaxMatch,rust,crash,110
1751283309,cd246d0b4d0a42edff2a0aa1e96a4f1c,PennController,14,0,test,NULL,PennController,19,_Trial_,End,1751283178517,undefined,MaxMatch,rust,crash,NULL
1751283309,cd246d0b4d0a42edff2a0aa1e96a4f1c,PennController,41,0,test,NULL,PennController,46,_Trial_,Start,1751283178518,undefined,SelfPair,embarrass,embarrass,NULL
1751283309,cd246d0b4d0a42edff2a0aa1e96a4f1c,PennController,41,0,test,NULL,PennController,46,_Header_,Start,1751283178518,undefined,SelfPair,embarrass,embarrass,NULL
1751283309,cd246d0b4d0a42edff2a0aa1e96a4f1c,PennController,41,0,test,NULL,PennController,46,_Header_,End,1751283178518,undefined,SelfPair,embarrass,embarrass,NULL
1751283309,cd246d0b4d0a42edff2a0aa1e96a4f1c,PennController,41,0,test,NULL,Scale,slider,Choice,99,1751283180018,undefined,SelfPair,embarrass,embarrass,106
1751283309,cd246d0b4d0a42edff2a0aa1e96a4f1c,PennController,41,0,test,NULL,PennController,46,_Trial_,End,1751283180755,undefined,SelfPair,embarrass,embarrass,NULL
1751283309,cd246d0b4d0a42edff2a0aa1e96a4f1c,PennController,9,0,test,NULL,PennController,14,_Trial_,Start,1751283180756,undefined,ConceptualMatchingOnly,adore,irritate,NULL
1751283309,cd246d0b4d0a42edff2a0aa1e96a4f1c,PennController,9,0,test,NULL,PennController,14,_Header_,Start,1751283180756,undefined,ConceptualMatchingOnly,adore,irritate,NULL
1751283309,cd246d0b4d0a42edff2a0aa1e96a4f1c,PennController,9,0,test,NULL,PennController,14,_Header_,End,1751283180756,undefined,ConceptualMatchingOnly,adore,irritate,NULL
1751283309,cd246d0b4d0a42edff2a0aa1e96a4f1c,PennController,9,0,test,NULL,Scale,slider,Choice,0,1751283182839,undefined,ConceptualMatchingOnly,adore,irritate,85
1751283309,cd246d0b4d0a42edff2a0aa1e96a4f1c,PennController,9,0,test,NULL,PennController,14,_Trial_,End,1751283183513,undefined,ConceptualMatchingOnly,adore,irritate,NULL
1751283309,cd246d0b4d0a42edff2a0aa1e96a4f1c,PennController,38,0,test,NULL,PennController,43,_Trial_,Start,1751283183513,undefined,SelfPair,rust,rust,NULL
1751283309,cd246d0b4d0a42edff2a0aa1e96a4f1c,PennController,38,0,test,NULL,PennController,43,_Header_,Start,1751283183513,undefined,SelfPair,rust,rust,NULL
1751283309,cd246d0b4d0a42edff2a0aa1e96a4f1c,PennController,38,0,test,NULL,PennController,43,_Header_,End,1751283183513,undefined,SelfPair,rust,rust,NULL
1751283309,cd246d0b4d0a42edff2a0aa1e96a4f1c,PennController,38,0,test,NULL,Scale,slider,Choice,99,1751283185023,undefined,SelfPair,rust,rust,102
1751283309,cd246d0b4d0a42edff2a0aa1e96a4f1c,PennController,38,0,test,NULL,PennController,43,_Trial_,End,1751283185703,undefined,SelfPair,rust,rust,NULL
1751283309,cd246d0b4d0a42edff2a0aa1e96a4f1c,PennController,45,0,test,NULL,PennController,50,_Trial_,Start,1751283185704,undefined,ValenceMatchingOnly,cuddle,like,NULL
1751283309,cd246d0b4d0a42edff2a0aa1e96a4f1c,PennController,45,0,test,NULL,PennController,50,_Header_,Start,1751283185704,undefined,ValenceMatchingOnly,cuddle,like,NULL
1751283309,cd246d0b4d0a42edff2a0aa1e96a4f1c,PennController,45,0,test,NULL,PennController,50,_Header_,End,1751283185704,undefined,ValenceMatchingOnly,cuddle,like,NULL
1751283309,cd246d0b4d0a42edff2a0aa1e96a4f1c,PennController,45,0,test,NULL,Scale,slider,Choice,64,1751283190273,undefined,ValenceMatchingOnly,cuddle,like,92
1751283309,cd246d0b4d0a42edff2a0aa1e96a4f1c,PennController,45,0,test,NULL,PennController,50,_Trial_,End,1751283190985,undefined,ValenceMatchingOnly,cuddle,like,NULL
1751283309,cd246d0b4d0a42edff2a0aa1e96a4f1c,PennController,5,0,test,NULL,PennController,10,_Trial_,Start,1751283190985,undefined,ConceptualMatchingOnly,reassure,criticize,NULL
1751283309,cd246d0b4d0a42edff2a0aa1e96a4f1c,PennController,5,0,test,NULL,PennController,10,_Header_,Start,1751283190985,undefined,ConceptualMatchingOnly,reassure,criticize,NULL
1751283309,cd246d0b4d0a42edff2a0aa1e96a4f1c,PennController,5,0,test,NULL,PennController,10,_Header_,End,1751283190985,undefined,ConceptualMatchingOnly,reassure,criticize,NULL
1751283309,cd246d0b4d0a42edff2a0aa1e96a4f1c,PennController,5,0,test,NULL,Scale,slider,Choice,0,1751283192915,undefined,ConceptualMatchingOnly,reassure,criticize,102
1751283309,cd246d0b4d0a42edff2a0aa1e96a4f1c,PennController,5,0,test,NULL,PennController,10,_Trial_,End,1751283193611,undefined,ConceptualMatchingOnly,reassure,criticize,NULL
1751283309,cd246d0b4d0a42edff2a0aa1e96a4f1c,PennController,36,0,test,NULL,PennController,41,_Trial_,Start,1751283193612,undefined,SelfPair,cuddle,cuddle,NULL
1751283309,cd246d0b4d0a42edff2a0aa1e96a4f1c,PennController,36,0,test,NULL,PennController,41,_Header_,Start,1751283193612,undefined,SelfPair,cuddle,cuddle,NULL
1751283309,cd246d0b4d0a42edff2a0aa1e96a4f1c,PennController,36,0,test,NULL,PennController,41,_Header_,End,1751283193612,undefined,SelfPair,cuddle,cuddle,NULL
1751283309,cd246d0b4d0a42edff2a0aa1e96a4f1c,PennController,36,0,test,NULL,Scale,slider,Choice,99,1751283195012,undefined,SelfPair,cuddle,cuddle,91
1751283309,cd246d0b4d0a42edff2a0aa1e96a4f1c,PennController,36,0,test,NULL,PennController,41,_Trial_,End,1751283195695,undefined,SelfPair,cuddle,cuddle,NULL
1751283309,cd246d0b4d0a42edff2a0aa1e96a4f1c,PennController,17,0,test,NULL,PennController,22,_Trial_,Start,1751283195696,undefined,MaxMatch,despair,criticize,NULL
1751283309,cd246d0b4d0a42edff2a0aa1e96a4f1c,PennController,17,0,test,NULL,PennController,22,_Header_,Start,1751283195696,undefined,MaxMatch,despair,criticize,NULL
1751283309,cd246d0b4d0a42edff2a0aa1e96a4f1c,PennController,17,0,test,NULL,PennController,22,_Header_,End,1751283195696,undefined,MaxMatch,despair,criticize,NULL
1751283309,cd246d0b4d0a42edff2a0aa1e96a4f1c,PennController,17,0,test,NULL,Scale,slider,Choice,0,1751283200883,undefined,MaxMatch,despair,criticize,123
1751283309,cd246d0b4d0a42edff2a0aa1e96a4f1c,PennController,17,0,test,NULL,PennController,22,_Trial_,End,1751283201495,undefined,MaxMatch,despair,criticize,NULL
1751283309,cd246d0b4d0a42edff2a0aa1e96a4f1c,PennController,30,0,test,NULL,PennController,35,_Trial_,Start,1751283201496,undefined,MaxMismatch,cuddle,dread,NULL
1751283309,cd246d0b4d0a42edff2a0aa1e96a4f1c,PennController,30,0,test,NULL,PennController,35,_Header_,Start,1751283201496,undefined,MaxMismatch,cuddle,dread,NULL
1751283309,cd246d0b4d0a42edff2a0aa1e96a4f1c,PennController,30,0,test,NULL,PennController,35,_Header_,End,1751283201496,undefined,MaxMismatch,cuddle,dread,NULL
1751283309,cd246d0b4d0a42edff2a0aa1e96a4f1c,PennController,30,0,test,NULL,Scale,slider,Choice,0,1751283203229,undefined,MaxMismatch,cuddle,dread,116
1751283309,cd246d0b4d0a42edff2a0aa1e96a4f1c,PennController,30,0,test,NULL,PennController,35,_Trial_,End,1751283203858,undefined,MaxMismatch,cuddle,dread,NULL
1751283309,cd246d0b4d0a42edff2a0aa1e96a4f1c,PennController,20,0,test,NULL,PennController,25,_Trial_,Start,1751283203858,undefined,MaxMatch,displease,dismay,NULL
1751283309,cd246d0b4d0a42edff2a0aa1e96a4f1c,PennController,20,0,test,NULL,PennController,25,_Header_,Start,1751283203858,undefined,MaxMatch,displease,dismay,NULL
1751283309,cd246d0b4d0a42edff2a0aa1e96a4f1c,PennController,20,0,test,NULL,PennController,25,_Header_,End,1751283203858,undefined,MaxMatch,displease,dismay,NULL
1751283309,cd246d0b4d0a42edff2a0aa1e96a4f1c,PennController,20,0,test,NULL,Scale,slider,Choice,60,1751283208146,undefined,MaxMatch,displease,dismay,91
1751283309,cd246d0b4d0a42edff2a0aa1e96a4f1c,PennController,20,0,test,NULL,PennController,25,_Trial_,End,1751283208743,undefined,MaxMatch,displease,dismay,NULL
1751283309,cd246d0b4d0a42edff2a0aa1e96a4f1c,PennController,3,0,test,NULL,PennController,8,_Trial_,Start,1751283208744,undefined,ConceptualMatchingOnly,clean,burn,NULL
1751283309,cd246d0b4d0a42edff2a0aa1e96a4f1c,PennController,3,0,test,NULL,PennController,8,_Header_,Start,1751283208744,undefined,ConceptualMatchingOnly,clean,burn,NULL
1751283309,cd246d0b4d0a42edff2a0aa1e96a4f1c,PennController,3,0,test,NULL,PennController,8,_Header_,End,1751283208744,undefined,ConceptualMatchingOnly,clean,burn,NULL
1751283309,cd246d0b4d0a42edff2a0aa1e96a4f1c,PennController,3,0,test,NULL,Scale,slider,Choice,0,1751283210423,undefined,ConceptualMatchingOnly,clean,burn,92
1751283309,cd246d0b4d0a42edff2a0aa1e96a4f1c,PennController,3,0,test,NULL,PennController,8,_Trial_,End,1751283211076,undefined,ConceptualMatchingOnly,clean,burn,NULL
1751283309,cd246d0b4d0a42edff2a0aa1e96a4f1c,PennController,11,0,test,NULL,PennController,16,_Trial_,Start,1751283211076,undefined,ConceptualMatchingOnly,produce,hit,NULL
1751283309,cd246d0b4d0a42edff2a0aa1e96a4f1c,PennController,11,0,test,NULL,PennController,16,_Header_,Start,1751283211076,undefined,ConceptualMatchingOnly,produce,hit,NULL
1751283309,cd246d0b4d0a42edff2a0aa1e96a4f1c,PennController,11,0,test,NULL,PennController,16,_Header_,End,1751283211076,undefined,ConceptualMatchingOnly,produce,hit,NULL
1751283309,cd246d0b4d0a42edff2a0aa1e96a4f1c,PennController,11,0,test,NULL,Scale,slider,Choice,16,1751283215249,undefined,ConceptualMatchingOnly,produce,hit,150
1751283309,cd246d0b4d0a42edff2a0aa1e96a4f1c,PennController,11,0,test,NULL,PennController,16,_Trial_,End,1751283215860,undefined,ConceptualMatchingOnly,produce,hit,NULL
1751283309,cd246d0b4d0a42edff2a0aa1e96a4f1c,PennController,21,0,test,NULL,PennController,26,_Trial_,Start,1751283215860,undefined,MaxMatch,cuddle,build,NULL
1751283309,cd246d0b4d0a42edff2a0aa1e96a4f1c,PennController,21,0,test,NULL,PennController,26,_Header_,Start,1751283215860,undefined,MaxMatch,cuddle,build,NULL
1751283309,cd246d0b4d0a42edff2a0aa1e96a4f1c,PennController,21,0,test,NULL,PennController,26,_Header_,End,1751283215860,undefined,MaxMatch,cuddle,build,NULL
1751283309,cd246d0b4d0a42edff2a0aa1e96a4f1c,PennController,21,0,test,NULL,Scale,slider,Choice,0,1751283217432,undefined,MaxMatch,cuddle,build,69
1751283309,cd246d0b4d0a42edff2a0aa1e96a4f1c,PennController,21,0,test,NULL,PennController,26,_Trial_,End,1751283218021,undefined,MaxMatch,cuddle,build,NULL
1751283309,cd246d0b4d0a42edff2a0aa1e96a4f1c,PennController,4,0,test,NULL,PennController,9,_Trial_,Start,1751283218022,undefined,ConceptualMatchingOnly,caress,rust,NULL
1751283309,cd246d0b4d0a42edff2a0aa1e96a4f1c,PennController,4,0,test,NULL,PennController,9,_Header_,Start,1751283218022,undefined,ConceptualMatchingOnly,caress,rust,NULL
1751283309,cd246d0b4d0a42edff2a0aa1e96a4f1c,PennController,4,0,test,NULL,PennController,9,_Header_,End,1751283218022,undefined,ConceptualMatchingOnly,caress,rust,NULL
1751283309,cd246d0b4d0a42edff2a0aa1e96a4f1c,PennController,4,0,test,NULL,Scale,slider,Choice,0,1751283219684,undefined,ConceptualMatchingOnly,caress,rust,115
1751283309,cd246d0b4d0a42edff2a0aa1e96a4f1c,PennController,4,0,test,NULL,PennController,9,_Trial_,End,1751283220181,undefined,ConceptualMatchingOnly,caress,rust,NULL
1751283309,cd246d0b4d0a42edff2a0aa1e96a4f1c,PennController,18,0,test,NULL,PennController,23,_Trial_,Start,1751283220182,undefined,MaxMatch,appreciate,adore,NULL
1751283309,cd246d0b4d0a42edff2a0aa1e96a4f1c,PennController,18,0,test,NULL,PennController,23,_Header_,Start,1751283220182,undefined,MaxMatch,appreciate,adore,NULL
1751283309,cd246d0b4d0a42edff2a0aa1e96a4f1c,PennController,18,0,test,NULL,PennController,23,_Header_,End,1751283220182,undefined,MaxMatch,appreciate,adore,NULL
1751283309,cd246d0b4d0a42edff2a0aa1e96a4f1c,PennController,18,0,test,NULL,Scale,slider,Choice,75,1751283222629,undefined,MaxMatch,appreciate,adore,117
1751283309,cd246d0b4d0a42edff2a0aa1e96a4f1c,PennController,18,0,test,NULL,PennController,23,_Trial_,End,1751283223303,undefined,MaxMatch,appreciate,adore,NULL
1751283309,cd246d0b4d0a42edff2a0aa1e96a4f1c,PennController,28,0,test,NULL,PennController,33,_Trial_,Start,1751283223303,undefined,MaxMismatch,encourage,tear,NULL
1751283309,cd246d0b4d0a42edff2a0aa1e96a4f1c,PennController,28,0,test,NULL,PennController,33,_Header_,Start,1751283223303,undefined,MaxMismatch,encourage,tear,NULL
1751283309,cd246d0b4d0a42edff2a0aa1e96a4f1c,PennController,28,0,test,NULL,PennController,33,_Header_,End,1751283223303,undefined,MaxMismatch,encourage,tear,NULL
1751283309,cd246d0b4d0a42edff2a0aa1e96a4f1c,PennController,28,0,test,NULL,Scale,slider,Choice,0,1751283224945,undefined,MaxMismatch,encourage,tear,111
1751283309,cd246d0b4d0a42edff2a0aa1e96a4f1c,PennController,28,0,test,NULL,PennController,33,_Trial_,End,1751283225439,undefined,MaxMismatch,encourage,tear,NULL
1751283309,cd246d0b4d0a42edff2a0aa1e96a4f1c,PennController,49,0,test,NULL,PennController,54,_Trial_,Start,1751283225440,undefined,ValenceMatchingOnly,clean,content,NULL
1751283309,cd246d0b4d0a42edff2a0aa1e96a4f1c,PennController,49,0,test,NULL,PennController,54,_Header_,Start,1751283225440,undefined,ValenceMatchingOnly,clean,content,NULL
1751283309,cd246d0b4d0a42edff2a0aa1e96a4f1c,PennController,49,0,test,NULL,PennController,54,_Header_,End,1751283225440,undefined,ValenceMatchingOnly,clean,content,NULL
1751283309,cd246d0b4d0a42edff2a0aa1e96a4f1c,PennController,49,0,test,NULL,Scale,slider,Choice,60,1751283228156,undefined,ValenceMatchingOnly,clean,content,123
1751283309,cd246d0b4d0a42edff2a0aa1e96a4f1c,PennController,49,0,test,NULL,PennController,54,_Trial_,End,1751283229103,undefined,ValenceMatchingOnly,clean,content,NULL
1751283309,cd246d0b4d0a42edff2a0aa1e96a4f1c,PennController,33,0,test,NULL,PennController,38,_Trial_,Start,1751283229104,undefined,SelfPair,produce,produce,NULL
1751283309,cd246d0b4d0a42edff2a0aa1e96a4f1c,PennController,33,0,test,NULL,PennController,38,_Header_,Start,1751283229104,undefined,SelfPair,produce,produce,NULL
1751283309,cd246d0b4d0a42edff2a0aa1e96a4f1c,PennController,33,0,test,NULL,PennController,38,_Header_,End,1751283229104,undefined,SelfPair,produce,produce,NULL
1751283309,cd246d0b4d0a42edff2a0aa1e96a4f1c,PennController,33,0,test,NULL,Scale,slider,Choice,99,1751283230381,undefined,SelfPair,produce,produce,85
1751283309,cd246d0b4d0a42edff2a0aa1e96a4f1c,PennController,33,0,test,NULL,PennController,38,_Trial_,End,1751283231217,undefined,SelfPair,produce,produce,NULL
1751283309,cd246d0b4d0a42edff2a0aa1e96a4f1c,PennController,46,0,test,NULL,PennController,51,_Trial_,Start,1751283231218,undefined,ValenceMatchingOnly,crash,criticize,NULL
1751283309,cd246d0b4d0a42edff2a0aa1e96a4f1c,PennController,46,0,test,NULL,PennController,51,_Header_,Start,1751283231218,undefined,ValenceMatchingOnly,crash,criticize,NULL
1751283309,cd246d0b4d0a42edff2a0aa1e96a4f1c,PennController,46,0,test,NULL,PennController,51,_Header_,End,1751283231218,undefined,ValenceMatchingOnly,crash,criticize,NULL
1751283309,cd246d0b4d0a42edff2a0aa1e96a4f1c,PennController,46,0,test,NULL,Scale,slider,Choice,0,1751283233641,undefined,ValenceMatchingOnly,crash,criticize,117
1751283309,cd246d0b4d0a42edff2a0aa1e96a4f1c,PennController,46,0,test,NULL,PennController,51,_Trial_,End,1751283234499,undefined,ValenceMatchingOnly,crash,criticize,NULL
1751283309,cd246d0b4d0a42edff2a0aa1e96a4f1c,PennController,12,0,test,NULL,PennController,17,_Trial_,Start,1751283234500,undefined,ConceptualMatchingOnly,decorate,slash,NULL
1751283309,cd246d0b4d0a42edff2a0aa1e96a4f1c,PennController,12,0,test,NULL,PennController,17,_Header_,Start,1751283234500,undefined,ConceptualMatchingOnly,decorate,slash,NULL
1751283309,cd246d0b4d0a42edff2a0aa1e96a4f1c,PennController,12,0,test,NULL,PennController,17,_Header_,End,1751283234500,undefined,ConceptualMatchingOnly,decorate,slash,NULL
1751283309,cd246d0b4d0a42edff2a0aa1e96a4f1c,PennController,12,0,test,NULL,Scale,slider,Choice,0,1751283236615,undefined,ConceptualMatchingOnly,decorate,slash,135
1751283309,cd246d0b4d0a42edff2a0aa1e96a4f1c,PennController,12,0,test,NULL,PennController,17,_Trial_,End,1751283237257,undefined,ConceptualMatchingOnly,decorate,slash,NULL
1751283309,cd246d0b4d0a42edff2a0aa1e96a4f1c,PennController,6,0,test,NULL,PennController,11,_Trial_,Start,1751283237258,undefined,ConceptualMatchingOnly,encourage,embarrass,NULL
1751283309,cd246d0b4d0a42edff2a0aa1e96a4f1c,PennController,6,0,test,NULL,PennController,11,_Header_,Start,1751283237258,undefined,ConceptualMatchingOnly,encourage,embarrass,NULL
1751283309,cd246d0b4d0a42edff2a0aa1e96a4f1c,PennController,6,0,test,NULL,PennController,11,_Header_,End,1751283237258,undefined,ConceptualMatchingOnly,encourage,embarrass,NULL
1751283309,cd246d0b4d0a42edff2a0aa1e96a4f1c,PennController,6,0,test,NULL,Scale,slider,Choice,0,1751283239619,undefined,ConceptualMatchingOnly,encourage,embarrass,77
1751283309,cd246d0b4d0a42edff2a0aa1e96a4f1c,PennController,6,0,test,NULL,PennController,11,_Trial_,End,1751283240207,undefined,ConceptualMatchingOnly,encourage,embarrass,NULL
1751283309,cd246d0b4d0a42edff2a0aa1e96a4f1c,PennController,32,0,test,NULL,PennController,37,_Trial_,Start,1751283240208,undefined,MaxMismatch,hug,dismay,NULL
1751283309,cd246d0b4d0a42edff2a0aa1e96a4f1c,PennController,32,0,test,NULL,PennController,37,_Header_,Start,1751283240208,undefined,MaxMismatch,hug,dismay,NULL
1751283309,cd246d0b4d0a42edff2a0aa1e96a4f1c,PennController,32,0,test,NULL,PennController,37,_Header_,End,1751283240208,undefined,MaxMismatch,hug,dismay,NULL
1751283309,cd246d0b4d0a42edff2a0aa1e96a4f1c,PennController,32,0,test,NULL,Scale,slider,Choice,0,1751283243445,undefined,MaxMismatch,hug,dismay,115
1751283309,cd246d0b4d0a42edff2a0aa1e96a4f1c,PennController,32,0,test,NULL,PennController,37,_Trial_,End,1751283244065,undefined,MaxMismatch,hug,dismay,NULL
1751283309,cd246d0b4d0a42edff2a0aa1e96a4f1c,PennController,24,0,test,NULL,PennController,29,_Trial_,Start,1751283244066,undefined,MaxMismatch,twinkle,displease,NULL
1751283309,cd246d0b4d0a42edff2a0aa1e96a4f1c,PennController,24,0,test,NULL,PennController,29,_Header_,Start,1751283244066,undefined,MaxMismatch,twinkle,displease,NULL
1751283309,cd246d0b4d0a42edff2a0aa1e96a4f1c,PennController,24,0,test,NULL,PennController,29,_Header_,End,1751283244066,undefined,MaxMismatch,twinkle,displease,NULL
1751283309,cd246d0b4d0a42edff2a0aa1e96a4f1c,PennController,24,0,test,NULL,Scale,slider,Choice,0,1751283245575,undefined,MaxMismatch,twinkle,displease,108
1751283309,cd246d0b4d0a42edff2a0aa1e96a4f1c,PennController,24,0,test,NULL,PennController,29,_Trial_,End,1751283246317,undefined,MaxMismatch,twinkle,displease,NULL
1751283309,cd246d0b4d0a42edff2a0aa1e96a4f1c,PennController,25,0,test,NULL,PennController,30,_Trial_,Start,1751283246318,undefined,MaxMismatch,reassure,stain,NULL
1751283309,cd246d0b4d0a42edff2a0aa1e96a4f1c,PennController,25,0,test,NULL,PennController,30,_Header_,Start,1751283246318,undefined,MaxMismatch,reassure,stain,NULL
1751283309,cd246d0b4d0a42edff2a0aa1e96a4f1c,PennController,25,0,test,NULL,PennController,30,_Header_,End,1751283246318,undefined,MaxMismatch,reassure,stain,NULL
1751283309,cd246d0b4d0a42edff2a0aa1e96a4f1c,PennController,25,0,test,NULL,Scale,slider,Choice,0,1751283248231,undefined,MaxMismatch,reassure,stain,80
1751283309,cd246d0b4d0a42edff2a0aa1e96a4f1c,PennController,25,0,test,NULL,PennController,30,_Trial_,End,1751283248911,undefined,MaxMismatch,reassure,stain,NULL
1751283309,cd246d0b4d0a42edff2a0aa1e96a4f1c,PennController,40,0,test,NULL,PennController,45,_Trial_,Start,1751283248912,undefined,SelfPair,cherish,cherish,NULL
1751283309,cd246d0b4d0a42edff2a0aa1e96a4f1c,PennController,40,0,test,NULL,PennController,45,_Header_,Start,1751283248912,undefined,SelfPair,cherish,cherish,NULL
1751283309,cd246d0b4d0a42edff2a0aa1e96a4f1c,PennController,40,0,test,NULL,PennController,45,_Header_,End,1751283248912,undefined,SelfPair,cherish,cherish,NULL
1751283309,cd246d0b4d0a42edff2a0aa1e96a4f1c,PennController,40,0,test,NULL,Scale,slider,Choice,99,1751283252458,undefined,SelfPair,cherish,cherish,147
1751283309,cd246d0b4d0a42edff2a0aa1e96a4f1c,PennController,40,0,test,NULL,PennController,45,_Trial_,End,1751283253063,undefined,SelfPair,cherish,cherish,NULL
1751283309,cd246d0b4d0a42edff2a0aa1e96a4f1c,PennController,35,0,test,NULL,PennController,40,_Trial_,Start,1751283253064,undefined,SelfPair,twinkle,twinkle,NULL
1751283309,cd246d0b4d0a42edff2a0aa1e96a4f1c,PennController,35,0,test,NULL,PennController,40,_Header_,Start,1751283253064,undefined,SelfPair,twinkle,twinkle,NULL
1751283309,cd246d0b4d0a42edff2a0aa1e96a4f1c,PennController,35,0,test,NULL,PennController,40,_Header_,End,1751283253064,undefined,SelfPair,twinkle,twinkle,NULL
1751283309,cd246d0b4d0a42edff2a0aa1e96a4f1c,PennController,35,0,test,NULL,Scale,slider,Choice,99,1751283256088,undefined,SelfPair,twinkle,twinkle,114
1751283309,cd246d0b4d0a42edff2a0aa1e96a4f1c,PennController,35,0,test,NULL,PennController,40,_Trial_,End,1751283256756,undefined,SelfPair,twinkle,twinkle,NULL
1751283309,cd246d0b4d0a42edff2a0aa1e96a4f1c,PennController,44,0,test,NULL,PennController,49,_Trial_,Start,1751283256756,undefined,ValenceMatchingOnly,caress,admire,NULL
1751283309,cd246d0b4d0a42edff2a0aa1e96a4f1c,PennController,44,0,test,NULL,PennController,49,_Header_,Start,1751283256756,undefined,ValenceMatchingOnly,caress,admire,NULL
1751283309,cd246d0b4d0a42edff2a0aa1e96a4f1c,PennController,44,0,test,NULL,PennController,49,_Header_,End,1751283256756,undefined,ValenceMatchingOnly,caress,admire,NULL
1751283309,cd246d0b4d0a42edff2a0aa1e96a4f1c,PennController,44,0,test,NULL,Scale,slider,Choice,60,1751283259774,undefined,ValenceMatchingOnly,caress,admire,109
1751283309,cd246d0b4d0a42edff2a0aa1e96a4f1c,PennController,44,0,test,NULL,PennController,49,_Trial_,End,1751283260767,undefined,ValenceMatchingOnly,caress,admire,NULL
1751283309,cd246d0b4d0a42edff2a0aa1e96a4f1c,PennController,26,0,test,NULL,PennController,31,_Trial_,Start,1751283260768,undefined,MaxMismatch,repair,criticize,NULL
1751283309,cd246d0b4d0a42edff2a0aa1e96a4f1c,PennController,26,0,test,NULL,PennController,31,_Header_,Start,1751283260768,undefined,MaxMismatch,repair,criticize,NULL
1751283309,cd246d0b4d0a42edff2a0aa1e96a4f1c,PennController,26,0,test,NULL,PennController,31,_Header_,End,1751283260768,undefined,MaxMismatch,repair,criticize,NULL
1751283309,cd246d0b4d0a42edff2a0aa1e96a4f1c,PennController,26,0,test,NULL,Scale,slider,Choice,0,1751283262339,undefined,MaxMismatch,repair,criticize,107
1751283309,cd246d0b4d0a42edff2a0aa1e96a4f1c,PennController,26,0,test,NULL,PennController,31,_Trial_,End,1751283262983,undefined,MaxMismatch,repair,criticize,NULL
1751283309,cd246d0b4d0a42edff2a0aa1e96a4f1c,PennController,42,0,test,NULL,PennController,47,_Trial_,Start,1751283262984,undefined,SelfPair,dread,dread,NULL
1751283309,cd246d0b4d0a42edff2a0aa1e96a4f1c,PennController,42,0,test,NULL,PennController,47,_Header_,Start,1751283262984,undefined,SelfPair,dread,dread,NULL
1751283309,cd246d0b4d0a42edff2a0aa1e96a4f1c,PennController,42,0,test,NULL,PennController,47,_Header_,End,1751283262984,undefined,SelfPair,dread,dread,NULL
1751283309,cd246d0b4d0a42edff2a0aa1e96a4f1c,PennController,42,0,test,NULL,Scale,slider,Choice,99,1751283264569,undefined,SelfPair,dread,dread,108
1751283309,cd246d0b4d0a42edff2a0aa1e96a4f1c,PennController,42,0,test,NULL,PennController,47,_Trial_,End,1751283265305,undefined,SelfPair,dread,dread,NULL
1751283309,cd246d0b4d0a42edff2a0aa1e96a4f1c,PennController,15,0,test,NULL,PennController,20,_Trial_,Start,1751283265306,undefined,MaxMatch,repair,caress,NULL
1751283309,cd246d0b4d0a42edff2a0aa1e96a4f1c,PennController,15,0,test,NULL,PennController,20,_Header_,Start,1751283265306,undefined,MaxMatch,repair,caress,NULL
1751283309,cd246d0b4d0a42edff2a0aa1e96a4f1c,PennController,15,0,test,NULL,PennController,20,_Header_,End,1751283265306,undefined,MaxMatch,repair,caress,NULL
1751283309,cd246d0b4d0a42edff2a0aa1e96a4f1c,PennController,15,0,test,NULL,Scale,slider,Choice,0,1751283268829,undefined,MaxMatch,repair,caress,115
1751283309,cd246d0b4d0a42edff2a0aa1e96a4f1c,PennController,15,0,test,NULL,PennController,20,_Trial_,End,1751283269550,undefined,MaxMatch,repair,caress,NULL
1751283309,cd246d0b4d0a42edff2a0aa1e96a4f1c,PennController,31,0,test,NULL,PennController,36,_Trial_,Start,1751283269550,undefined,MaxMismatch,caress,embarrass,NULL
1751283309,cd246d0b4d0a42edff2a0aa1e96a4f1c,PennController,31,0,test,NULL,PennController,36,_Header_,Start,1751283269550,undefined,MaxMismatch,caress,embarrass,NULL
1751283309,cd246d0b4d0a42edff2a0aa1e96a4f1c,PennController,31,0,test,NULL,PennController,36,_Header_,End,1751283269550,undefined,MaxMismatch,caress,embarrass,NULL
1751283309,cd246d0b4d0a42edff2a0aa1e96a4f1c,PennController,31,0,test,NULL,Scale,slider,Choice,0,1751283273027,undefined,MaxMismatch,caress,embarrass,112
1751283309,cd246d0b4d0a42edff2a0aa1e96a4f1c,PennController,31,0,test,NULL,PennController,36,_Trial_,End,1751283274473,undefined,MaxMismatch,caress,embarrass,NULL
1751283309,cd246d0b4d0a42edff2a0aa1e96a4f1c,PennController,16,0,test,NULL,PennController,21,_Trial_,Start,1751283274474,undefined,MaxMatch,like,cherish,NULL
1751283309,cd246d0b4d0a42edff2a0aa1e96a4f1c,PennController,16,0,test,NULL,PennController,21,_Header_,Start,1751283274474,undefined,MaxMatch,like,cherish,NULL
1751283309,cd246d0b4d0a42edff2a0aa1e96a4f1c,PennController,16,0,test,NULL,PennController,21,_Header_,End,1751283274474,undefined,MaxMatch,like,cherish,NULL
1751283309,cd246d0b4d0a42edff2a0aa1e96a4f1c,PennController,16,0,test,NULL,Scale,slider,Choice,83,1751283278571,undefined,MaxMatch,like,cherish,140
1751283309,cd246d0b4d0a42edff2a0aa1e96a4f1c,PennController,16,0,test,NULL,PennController,21,_Trial_,End,1751283279431,undefined,MaxMatch,like,cherish,NULL
1751283309,cd246d0b4d0a42edff2a0aa1e96a4f1c,PennController,7,0,test,NULL,PennController,12,_Trial_,Start,1751283279432,undefined,ConceptualMatchingOnly,sculpt,corrode,NULL
1751283309,cd246d0b4d0a42edff2a0aa1e96a4f1c,PennController,7,0,test,NULL,PennController,12,_Header_,Start,1751283279432,undefined,ConceptualMatchingOnly,sculpt,corrode,NULL
1751283309,cd246d0b4d0a42edff2a0aa1e96a4f1c,PennController,7,0,test,NULL,PennController,12,_Header_,End,1751283279432,undefined,ConceptualMatchingOnly,sculpt,corrode,NULL
1751283309,cd246d0b4d0a42edff2a0aa1e96a4f1c,PennController,7,0,test,NULL,Scale,slider,Choice,0,1751283281157,undefined,ConceptualMatchingOnly,sculpt,corrode,139
1751283309,cd246d0b4d0a42edff2a0aa1e96a4f1c,PennController,7,0,test,NULL,PennController,12,_Trial_,End,1751283282233,undefined,ConceptualMatchingOnly,sculpt,corrode,NULL
1751283309,cd246d0b4d0a42edff2a0aa1e96a4f1c,PennController,10,0,test,NULL,PennController,15,_Trial_,Start,1751283282234,undefined,ConceptualMatchingOnly,twinkle,delete,NULL
1751283309,cd246d0b4d0a42edff2a0aa1e96a4f1c,PennController,10,0,test,NULL,PennController,15,_Header_,Start,1751283282234,undefined,ConceptualMatchingOnly,twinkle,delete,NULL
1751283309,cd246d0b4d0a42edff2a0aa1e96a4f1c,PennController,10,0,test,NULL,PennController,15,_Header_,End,1751283282234,undefined,ConceptualMatchingOnly,twinkle,delete,NULL
1751283309,cd246d0b4d0a42edff2a0aa1e96a4f1c,PennController,10,0,test,NULL,Scale,slider,Choice,0,1751283283804,undefined,ConceptualMatchingOnly,twinkle,delete,123
1751283309,cd246d0b4d0a42edff2a0aa1e96a4f1c,PennController,10,0,test,NULL,PennController,15,_Trial_,End,1751283284503,undefined,ConceptualMatchingOnly,twinkle,delete,NULL
1751283309,cd246d0b4d0a42edff2a0aa1e96a4f1c,PennController,52,0,test,NULL,PennController,57,_Trial_,Start,1751283284504,undefined,ValenceMatchingOnly,hit,dread,NULL
1751283309,cd246d0b4d0a42edff2a0aa1e96a4f1c,PennController,52,0,test,NULL,PennController,57,_Header_,Start,1751283284504,undefined,ValenceMatchingOnly,hit,dread,NULL
1751283309,cd246d0b4d0a42edff2a0aa1e96a4f1c,PennController,52,0,test,NULL,PennController,57,_Header_,End,1751283284504,undefined,ValenceMatchingOnly,hit,dread,NULL
1751283309,cd246d0b4d0a42edff2a0aa1e96a4f1c,PennController,52,0,test,NULL,Scale,slider,Choice,0,1751283285919,undefined,ValenceMatchingOnly,hit,dread,91
1751283309,cd246d0b4d0a42edff2a0aa1e96a4f1c,PennController,52,0,test,NULL,PennController,57,_Trial_,End,1751283286477,undefined,ValenceMatchingOnly,hit,dread,NULL
1751283309,cd246d0b4d0a42edff2a0aa1e96a4f1c,PennController,51,0,test,NULL,PennController,56,_Trial_,Start,1751283286478,undefined,ValenceMatchingOnly,slaughter,offend,NULL
1751283309,cd246d0b4d0a42edff2a0aa1e96a4f1c,PennController,51,0,test,NULL,PennController,56,_Header_,Start,1751283286478,undefined,ValenceMatchingOnly,slaughter,offend,NULL
1751283309,cd246d0b4d0a42edff2a0aa1e96a4f1c,PennController,51,0,test,NULL,PennController,56,_Header_,End,1751283286478,undefined,ValenceMatchingOnly,slaughter,offend,NULL
1751283309,cd246d0b4d0a42edff2a0aa1e96a4f1c,PennController,51,0,test,NULL,Scale,slider,Choice,0,1751283288194,undefined,ValenceMatchingOnly,slaughter,offend,106
1751283309,cd246d0b4d0a42edff2a0aa1e96a4f1c,PennController,51,0,test,NULL,PennController,56,_Trial_,End,1751283288783,undefined,ValenceMatchingOnly,slaughter,offend,NULL
1751283309,cd246d0b4d0a42edff2a0aa1e96a4f1c,PennController,39,0,test,NULL,PennController,44,_Trial_,Start,1751283288784,undefined,SelfPair,clean,clean,NULL
1751283309,cd246d0b4d0a42edff2a0aa1e96a4f1c,PennController,39,0,test,NULL,PennController,44,_Header_,Start,1751283288784,undefined,SelfPair,clean,clean,NULL
1751283309,cd246d0b4d0a42edff2a0aa1e96a4f1c,PennController,39,0,test,NULL,PennController,44,_Header_,End,1751283288784,undefined,SelfPair,clean,clean,NULL
1751283309,cd246d0b4d0a42edff2a0aa1e96a4f1c,PennController,39,0,test,NULL,Scale,slider,Choice,99,1751283289874,undefined,SelfPair,clean,clean,115
1751283309,cd246d0b4d0a42edff2a0aa1e96a4f1c,PennController,39,0,test,NULL,PennController,44,_Trial_,End,1751283291712,undefined,SelfPair,clean,clean,NULL
1751283309,cd246d0b4d0a42edff2a0aa1e96a4f1c,PennController,22,0,test,NULL,PennController,27,_Trial_,Start,1751283291712,undefined,MaxMatch,produce,clean,NULL
1751283309,cd246d0b4d0a42edff2a0aa1e96a4f1c,PennController,22,0,test,NULL,PennController,27,_Header_,Start,1751283291712,undefined,MaxMatch,produce,clean,NULL
1751283309,cd246d0b4d0a42edff2a0aa1e96a4f1c,PennController,22,0,test,NULL,PennController,27,_Header_,End,1751283291712,undefined,MaxMatch,produce,clean,NULL
1751283309,cd246d0b4d0a42edff2a0aa1e96a4f1c,PennController,22,0,test,NULL,Scale,slider,Choice,0,1751283295375,undefined,MaxMatch,produce,clean,135
1751283309,cd246d0b4d0a42edff2a0aa1e96a4f1c,PennController,22,0,test,NULL,PennController,27,_Trial_,End,1751283296033,undefined,MaxMatch,produce,clean,NULL
1751283309,cd246d0b4d0a42edff2a0aa1e96a4f1c,PennController,29,0,test,NULL,PennController,34,_Trial_,Start,1751283296034,undefined,MaxMismatch,adore,rust,NULL
1751283309,cd246d0b4d0a42edff2a0aa1e96a4f1c,PennController,29,0,test,NULL,PennController,34,_Header_,Start,1751283296034,undefined,MaxMismatch,adore,rust,NULL
1751283309,cd246d0b4d0a42edff2a0aa1e96a4f1c,PennController,29,0,test,NULL,PennController,34,_Header_,End,1751283296034,undefined,MaxMismatch,adore,rust,NULL
